File: test_trajectories/cyclic_voltammetry/biologic6.txt
mode	ox/red	error	control changes	counter inc.	time/s	control/V	Ewe/V	<I>/mA	cycle number	(Q-Qo)/C	I Range	step time/s	P/W
2	0	0	0	0	0.000000000000000E+000	-0.143047	-0.142154	-3.17827e-07	1	0.0000000E+000	59	0.000000000000000E+000	4.51804e-11
2	1	0	1	0	0.6153	-0.0815209	-0.0635726	0.000240898	1	6.97901e-08	53	0.6126	-1.53145e-08
2	1	0	1	0	0.7103	-0.0720207	-0.0617594	0.000140749	1	8.51075e-08	53	0.7076	-8.69256e-09
2	1	0	1	0	0.8353	-0.0595205	-0.0549103	0.00018313	1	1.04732e-07	54	0.8326	-1.00557e-08
2	1	0	1	0	0.9303	-0.0500203	-0.0473847	0.000225696	1	1.24495e-07	54	0.9276	-1.06945e-08
2	1	0	1	0	1.0253	-0.0405201	-0.0390076	0.000259118	1	1.47457e-07	54	1.0226	-1.01076e-08
2	1	0	1	0	1.1203	-0.03102	-0.030083	0.000274585	1	1.7275e-07	54	1.1176	-8.26036e-09
2	1	0	1	0	1.2153	-0.0215198	-0.0209349	0.000294649	1	2.00039e-07	54	1.2126	-6.16843e-09
2	1	0	1	0	1.3103	-0.0120196	-0.0116529	0.000321704	1	2.29219e-07	54	1.3076	-3.74878e-09
2	1	0	1	0	1.4053	-0.00251942	-0.00226697	0.00033972	1	2.60462e-07	54	1.4026	-7.70136e-10
2	1	0	1	0	1.5003	0.00698076	0.0071712	0.000366739	1	2.94189e-07	54	1.4976	2.62996e-09
2	1	0	1	0	1.5953	0.0164809	0.016611	0.000406115	1	3.30859e-07	54	1.5926	6.746e-09
2	1	0	1	0	1.6903	0.0259811	0.0260453	0.000449012	1	3.71237e-07	54	1.6876	1.16947e-08
2	1	0	1	0	1.7853	0.0354813	0.035479	0.000501974	1	4.16384e-07	54	1.7826	1.78095e-08
2	1	0	1	0	1.8803	0.0449815	0.0449308	0.000576886	1	4.67635e-07	54	1.8776	2.59199e-08
2	1	0	1	0	1.9753	0.0544816	0.0543239	0.000668836	1	5.26542e-07	54	1.9726	3.63338e-08
2	1	0	1	0	2.0703	0.0639818	0.0637874	0.000762616	1	5.9445e-07	54	2.0676	4.86453e-08
2	1	0	1	0	2.1653	0.073482	0.0732332	0.00086575	1	6.72005e-07	54	2.1626	6.34017e-08
2	1	0	1	0	2.2603	0.0829822	0.0826579	0.000979347	1	7.5942e-07	54	2.2576	8.09507e-08
2	1	0	1	0	2.3853	0.0954824	0.0974299	0.00130979	1	8.93896e-07	53	2.3826	1.27612e-07
2	1	0	1	0	2.4803	0.104983	0.105838	0.00221106	1	1.04777e-06	53	2.4776	2.34015e-07
2	1	0	1	0	2.5753	0.114483	0.114493	0.00432154	1	1.36268e-06	53	2.5726	4.94785e-07
2	1	0	1	0	2.6703	0.123983	0.123965	0.00483233	1	1.80886e-06	53	2.6676	5.99039e-07
2	1	0	1	0	2.7653	0.133483	0.133571	0.0047562	1	2.2646e-06	53	2.7626	6.35292e-07
2	1	0	1	0	2.8603	0.142983	0.143125	0.00467528	1	2.71245e-06	53	2.8576	6.6915e-07
2	1	0	1	0	2.9553	0.152483	0.152645	0.00462147	1	3.15378e-06	53	2.9526	7.05444e-07
2	1	0	1	0	3.0503	0.161984	0.162164	0.00456774	1	3.59044e-06	53	3.0476	7.40724e-07
2	1	0	1	0	3.1453	0.171484	0.171648	0.00449894	1	4.0212e-06	53	3.1426	7.72235e-07
2	1	0	1	0	3.2403	0.180984	0.181186	0.00440756	1	4.44412e-06	53	3.2376	7.98588e-07
2	1	0	1	0	3.3353	0.190484	0.190713	0.00423083	1	4.85652e-06	53	3.3326	8.06875e-07
2	1	0	1	0	3.4303	0.199984	0.200576	0.00267573	1	5.18828e-06	53	3.4276	5.36688e-07
2	1	0	1	0	3.5253	0.209484	0.21026	0.00138174	1	5.39756e-06	53	3.5226	2.90524e-07
2	1	0	1	0	3.6203	0.218985	0.21964	0.000744083	1	5.48974e-06	53	3.6176	1.63431e-07
2	1	0	1	0	3.7153	0.228485	0.22898	0.000587675	1	5.5521e-06	53	3.7126	1.34566e-07
2	1	0	1	0	3.8103	0.237985	0.238395	0.000521718	1	5.60439e-06	53	3.8076	1.24375e-07
2	1	0	1	0	3.9053	0.247485	0.247839	0.000470071	1	5.65112e-06	53	3.9026	1.16502e-07
2	1	0	1	0	4.0303	0.259985	0.259359	0.000434482	1	5.70738e-06	54	4.0276	1.12687e-07
2	1	0	1	0	4.1253	0.269486	0.269272	0.000422722	1	5.74827e-06	54	4.1226	1.13827e-07
2	1	0	1	0	4.2203	0.278986	0.279045	0.000400411	1	5.78732e-06	54	4.2176	1.11733e-07
2	1	0	1	0	4.3153	0.288486	0.288625	0.000390357	1	5.82495e-06	54	4.3126	1.12667e-07
2	1	0	1	0	4.4103	0.297986	0.298178	0.000381404	1	5.86134e-06	54	4.4076	1.13726e-07
2	1	0	1	0	4.5053	0.307486	0.307724	0.000366054	1	5.89684e-06	54	4.5026	1.12644e-07
2	1	0	1	0	4.6003	0.316986	0.317249	0.000358266	1	5.93144e-06	54	4.5976	1.1366e-07
2	1	0	1	0	4.6953	0.326487	0.326714	0.000357179	1	5.96533e-06	54	4.6926	1.16695e-07
2	1	0	1	0	4.7903	0.335987	0.336229	0.000346949	1	5.99875e-06	54	4.7876	1.16654e-07
2	1	0	1	0	4.8853	0.345487	0.34574	0.000342857	1	6.03164e-06	54	4.8826	1.1854e-07
2	1	0	1	0	4.9803	0.354987	0.355209	0.00034385	1	6.06425e-06	54	4.9776	1.22139e-07
2	1	0	1	0	5.0753	0.364487	0.364725	0.000337728	1	6.09644e-06	54	5.0726	1.23178e-07
2	1	0	1	0	5.1703	0.373988	0.374243	0.000333457	1	6.12837e-06	54	5.1676	1.24794e-07
2	1	0	1	0	5.2653	0.383488	0.383741	0.000333652	1	6.16008e-06	54	5.2626	1.28036e-07
2	1	0	1	0	5.3604	0.392988	0.393239	0.000333443	1	6.1916e-06	54	5.3577	1.31123e-07
2	1	0	1	0	5.4434	0.398738	0.399592	0.00012474	1	6.21735e-06	54	5.4407	4.98451e-08
2	0	0	1	0	5.5385	0.389238	0.390186	-7.05888e-05	1	6.21506e-06	54	0.0651	-2.75428e-08
2	0	0	1	0	5.6335	0.379738	0.380445	-9.46222e-05	1	6.20726e-06	54	0.1601	-3.59985e-08
2	0	0	1	0	5.7285	0.370237	0.370776	-0.000103166	1	6.19773e-06	54	0.2551	-3.82513e-08
2	0	0	1	0	5.8235	0.360737	0.361227	-0.000120789	1	6.18702e-06	54	0.3501	-4.36324e-08
2	0	0	1	0	5.9185	0.351237	0.351687	-0.000129348	1	6.17532e-06	54	0.4451	-4.54901e-08
2	0	0	1	0	6.0135	0.341737	0.342135	-0.000129613	1	6.16291e-06	54	0.5401	-4.43452e-08
2	0	0	1	0	6.1085	0.332237	0.332623	-0.00014179	1	6.14987e-06	54	0.6351	-4.71627e-08
2	0	0	1	0	6.2035	0.322737	0.32312	-0.000148578	1	6.13623e-06	54	0.7301	-4.80084e-08
2	0	0	1	0	6.2985	0.313236	0.313619	-0.00014951	1	6.12208e-06	54	0.8251	-4.68891e-08
2	0	0	1	0	6.3935	0.303736	0.304073	-0.000154866	1	6.10745e-06	54	0.9201	-4.70905e-08
2	0	0	1	0	6.4885	0.294236	0.294591	-0.000162652	1	6.09244e-06	54	1.0151	-4.79157e-08
2	0	0	1	0	6.5835	0.284736	0.285106	-0.000165279	1	6.07701e-06	54	1.1101	-4.71221e-08
2	0	0	1	0	6.6785	0.275236	0.275575	-0.000164623	1	6.06118e-06	54	1.2051	-4.5366e-08
2	0	0	1	0	6.7735	0.265736	0.266085	-0.000174354	1	6.04502e-06	54	1.3001	-4.63928e-08
2	0	0	1	0	6.8685	0.256235	0.256595	-0.000177285	1	6.02852e-06	54	1.3951	-4.54906e-08
2	0	0	1	0	6.9635	0.246735	0.247064	-0.000175047	1	6.01166e-06	54	1.4901	-4.32479e-08
2	0	0	1	0	7.0585	0.237235	0.23758	-0.000183798	1	5.99449e-06	54	1.5851	-4.36667e-08
2	0	0	1	0	7.1535	0.227735	0.228073	-0.000188073	1	5.97702e-06	54	1.6801	-4.28943e-08
2	0	0	1	0	7.2485	0.218235	0.218575	-0.000186375	1	5.95921e-06	54	1.7751	-4.07369e-08
2	0	0	1	0	7.3435	0.208734	0.209073	-0.000192002	1	5.94109e-06	54	1.8701	-4.01424e-08
2	0	0	1	0	7.4385	0.199234	0.199576	-0.000198906	1	5.92263e-06	54	1.9651	-3.96969e-08
2	0	0	1	0	7.5335	0.189734	0.190072	-0.000199302	1	5.90382e-06	54	2.0601	-3.78817e-08
2	0	0	1	0	7.6285	0.180234	0.18057	-0.000201019	1	5.88464e-06	54	2.1551	-3.62979e-08
2	0	0	1	0	7.7235	0.170734	0.171096	-0.000210233	1	5.86507e-06	54	2.2501	-3.59699e-08
2	0	0	1	0	7.8185	0.161234	0.161604	-0.000214218	1	5.8451e-06	54	2.3451	-3.46185e-08
2	0	0	1	0	7.9135	0.151733	0.152067	-0.000213511	1	5.82466e-06	54	2.4401	-3.24679e-08
2	0	0	1	0	8.0085	0.142233	0.142596	-0.000223889	1	5.80379e-06	54	2.5351	-3.19256e-08
2	0	0	1	0	8.1035	0.132733	0.133106	-0.000229985	1	5.78247e-06	54	2.6301	-3.06123e-08
2	0	0	1	0	8.1985	0.123233	0.123577	-0.000229438	1	5.76064e-06	54	2.7251	-2.83534e-08
2	0	0	1	0	8.2935	0.113733	0.114086	-0.000238203	1	5.73831e-06	54	2.8201	-2.71758e-08
2	0	0	1	0	8.3885	0.104233	0.104608	-0.000245442	1	5.7155e-06	54	2.9151	-2.56753e-08
2	0	0	1	0	8.4835	0.0947324	0.0951047	-0.000247002	1	5.69218e-06	54	3.0101	-2.3491e-08
2	0	0	1	0	8.5785	0.0852322	0.0855855	-0.000251779	1	5.66836e-06	54	3.1051	-2.15486e-08
2	0	0	1	0	8.6735	0.075732	0.0761034	-0.000261019	1	5.64405e-06	54	3.2001	-1.98644e-08
2	0	0	1	0	8.7685	0.0662318	0.0666174	-0.00026489	1	5.61926e-06	54	3.2951	-1.76463e-08
2	0	0	1	0	8.8635	0.0567317	0.057091	-0.000265566	1	5.59392e-06	54	3.3901	-1.51614e-08
2	0	0	1	0	8.9585	0.0472315	0.047603	-0.000277646	1	5.56802e-06	54	3.4851	-1.32168e-08
2	0	0	1	0	9.0535	0.0377313	0.0381	-0.000285012	1	5.54156e-06	54	3.5801	-1.0859e-08
2	0	0	1	0	9.1485	0.0282311	0.0286037	-0.000285131	1	5.51442e-06	54	3.6751	-8.15581e-09
2	0	0	1	0	9.2435	0.018731	0.0191207	-0.000298128	1	5.48653e-06	54	3.7701	-5.70041e-09
2	0	0	1	0	9.3385	0.0092308	0.00962594	-0.000310491	1	5.45778e-06	54	3.8651	-2.98876e-09
2	0	0	1	0	9.4335	-0.000269374	0.000126035	-0.00031883	1	5.42797e-06	54	3.9601	-4.01837e-11
2	0	0	1	0	9.5285	-0.00976955	-0.00937304	-0.000337438	1	5.39668e-06	54	4.0551	3.16282e-09
2	0	0	1	0	9.6235	-0.0192697	-0.0188173	-0.00037091	1	5.36319e-06	54	4.1501	6.97952e-09
2	0	0	1	0	9.7185	-0.0287699	-0.0282332	-0.000429152	1	5.32576e-06	54	4.2451	1.21163e-08
2	0	0	1	0	9.8135	-0.0382701	-0.0374715	-0.000582193	1	5.27848e-06	54	4.3401	2.18156e-08
2	0	0	1	0	9.9085	-0.0477703	-0.0466972	-0.000781673	1	5.21387e-06	54	4.4351	3.65019e-08
2	0	0	1	0	10.0335	-0.0602705	-0.0611283	-0.00144255	1	5.08739e-06	53	4.5601	8.81804e-08
2	0	0	1	0	10.1285	-0.0697707	-0.0699811	-0.001741	1	4.93465e-06	53	4.6551	1.21837e-07
2	0	0	1	0	10.2235	-0.0792709	-0.0791593	-0.00191961	1	4.7599e-06	53	4.7501	1.51955e-07
2	0	0	1	0	10.3185	-0.0887711	-0.0885312	-0.00199927	1	4.57366e-06	53	4.8451	1.76998e-07
2	0	0	1	0	10.4135	-0.0982712	-0.097964	-0.00201901	1	4.38234e-06	53	4.9401	1.9779e-07
2	0	0	1	0	10.5085	-0.107771	-0.107443	-0.00202731	1	4.18978e-06	53	5.0351	2.1782e-07
2	0	0	1	0	10.6035	-0.117272	-0.116947	-0.00200108	1	3.99887e-06	53	5.1301	2.3402e-07
2	0	0	1	0	10.6985	-0.126772	-0.126443	-0.00193269	1	3.81199e-06	53	5.2251	2.44375e-07
2	0	0	1	0	10.7935	-0.136272	-0.135939	-0.00185456	1	3.63198e-06	53	5.3201	2.52107e-07
2	0	0	1	0	10.8886	-0.145772	-0.145463	-0.0017316	1	3.46185e-06	53	5.4152	2.51884e-07
2	0	0	1	0	10.9836	-0.155272	-0.154976	-0.00160342	1	3.30368e-06	53	5.5102	2.48493e-07
2	0	0	1	0	11.0786	-0.164772	-0.16449	-0.00145435	1	3.15854e-06	53	5.6052	2.39226e-07
2	0	0	1	0	11.1736	-0.174273	-0.173976	-0.00133832	1	3.02588e-06	53	5.7002	2.32836e-07
2	0	0	1	0	11.2686	-0.183773	-0.183484	-0.00124857	1	2.90337e-06	53	5.7952	2.29092e-07
2	0	0	1	0	11.3636	-0.193273	-0.192982	-0.00117653	1	2.78825e-06	53	5.8902	2.27049e-07
2	0	0	1	0	11.4586	-0.202773	-0.202471	-0.00112594	1	2.67926e-06	53	5.9852	2.27971e-07
2	0	0	1	0	11.5536	-0.212273	-0.211959	-0.00108899	1	2.57494e-06	53	6.0802	2.3082e-07
2	0	0	1	0	11.6486	-0.221774	-0.221464	-0.00103635	1	2.47394e-06	53	6.1752	2.29515e-07
2	0	0	1	0	11.7436	-0.231274	-0.230954	-0.00101445	1	2.3761e-06	53	6.2702	2.34291e-07
2	0	0	1	0	11.8386	-0.240774	-0.240452	-0.000980043	1	2.28147e-06	53	6.3652	2.35653e-07
2	0	0	1	0	11.9336	-0.250274	-0.249944	-0.000953107	1	2.18961e-06	53	6.4602	2.38223e-07
2	0	0	1	0	12.0286	-0.259774	-0.259436	-0.000925116	1	2.10021e-06	53	6.5552	2.40009e-07
2	0	0	1	0	12.1236	-0.269274	-0.268944	-0.000906311	1	2.01308e-06	53	6.6502	2.43747e-07
2	0	0	1	0	12.2186	-0.278775	-0.278454	-0.000884876	1	1.92824e-06	53	6.7452	2.46397e-07
2	0	0	1	0	12.3136	-0.288275	-0.287939	-0.000855806	1	1.8451e-06	53	6.8402	2.46419e-07
2	0	0	1	0	12.4086	-0.297775	-0.297453	-0.000841914	1	1.76412e-06	53	6.9352	2.5043e-07
2	0	0	1	0	12.5036	-0.307275	-0.306946	-0.000819573	1	1.68558e-06	53	7.0302	2.51564e-07
2	0	0	1	0	12.5986	-0.316775	-0.316454	-0.000790349	1	1.60895e-06	53	7.1252	2.50109e-07
2	0	0	1	0	12.6936	-0.326276	-0.32594	-0.000772213	1	1.53458e-06	53	7.2202	2.51695e-07
2	0	0	1	0	12.7886	-0.335776	-0.335462	-0.00075252	1	1.46231e-06	53	7.3152	2.52442e-07
2	0	0	1	0	12.8836	-0.345276	-0.344955	-0.000725041	1	1.3921e-06	53	7.4102	2.50107e-07
2	0	0	1	0	12.9786	-0.354776	-0.354453	-0.000705479	1	1.32385e-06	53	7.5052	2.50059e-07
2	0	0	1	0	13.0736	-0.364276	-0.36397	-0.00068744	1	1.25776e-06	53	7.6002	2.50207e-07
2	0	0	1	0	13.1686	-0.373776	-0.373452	-0.000660637	1	1.19374e-06	53	7.6952	2.46716e-07
2	0	0	1	0	13.2636	-0.383277	-0.38297	-0.000634934	1	1.13177e-06	53	7.7902	2.4316e-07
2	0	0	1	0	13.3586	-0.392777	-0.392461	-0.000623273	1	1.07172e-06	53	7.8852	2.4461e-07
2	0	0	1	0	13.4536	-0.402277	-0.40195	-0.00060591	1	1.01388e-06	53	7.9802	2.43546e-07
2	0	0	1	0	13.5486	-0.411777	-0.411469	-0.000572998	1	9.57796e-07	53	8.0752	2.35771e-07
2	0	0	1	0	13.6436	-0.421277	-0.420964	-0.000561145	1	9.03668e-07	53	8.1702	2.36222e-07
2	0	0	1	0	13.7386	-0.430778	-0.430484	-0.000540676	1	8.51693e-07	53	8.2652	2.32752e-07
2	0	0	1	0	13.8336	-0.440278	-0.439982	-0.000514188	1	8.01523e-07	53	8.3602	2.26233e-07
2	0	0	1	0	13.9286	-0.449778	-0.449448	-0.000504494	1	7.53031e-07	53	8.4552	2.26744e-07
2	0	0	1	0	14.0236	-0.459278	-0.458969	-0.000488465	1	7.06272e-07	53	8.5502	2.2419e-07
2	0	0	1	0	14.1186	-0.468778	-0.468458	-0.000458382	1	6.6123e-07	53	8.6452	2.14733e-07
2	0	0	1	0	14.2136	-0.478278	-0.477982	-0.00043969	1	6.18153e-07	53	8.7402	2.10164e-07
2	0	0	1	0	14.3386	-0.490779	-0.489848	-0.000425518	1	5.63962e-07	54	8.8652	2.08439e-07
2	0	0	1	0	14.4336	-0.500279	-0.499668	-0.000400074	1	5.24646e-07	54	8.9602	1.99904e-07
2	0	0	1	0	14.5286	-0.509779	-0.509323	-0.000392235	1	4.86808e-07	54	9.0552	1.99774e-07
2	0	0	1	0	14.6236	-0.519279	-0.518892	-0.000377198	1	4.5059e-07	54	9.1502	1.95725e-07
2	0	0	1	0	14.7186	-0.528779	-0.528434	-0.000356143	1	4.15618e-07	54	9.2452	1.88198e-07
2	0	0	1	0	14.8136	-0.53828	-0.537995	-0.000344856	1	3.82095e-07	54	9.3402	1.85531e-07
2	0	0	1	0	14.9086	-0.54778	-0.547484	-0.000333758	1	3.49964e-07	54	9.4352	1.82727e-07
2	0	0	1	0	15.0036	-0.55728	-0.556992	-0.000316982	1	3.19137e-07	54	9.5302	1.76556e-07
2	0	0	1	0	15.0986	-0.56678	-0.566523	-0.00030277	1	2.89439e-07	54	9.6252	1.71526e-07
2	0	0	1	0	15.1936	-0.57628	-0.576011	-0.000297014	1	2.60922e-07	54	9.7202	1.71083e-07
2	0	0	1	0	15.2886	-0.58578	-0.585465	-0.000286797	1	2.33454e-07	54	9.8152	1.6791e-07
2	0	0	1	0	15.3836	-0.595281	-0.595034	-0.000266889	1	2.06976e-07	54	9.9102	1.58808e-07
2	0	0	1	1	15.4691	-0.596181	-0.595941	-0.000251068	1	1.84343e-07	54	9.9957	1.49622e-07
2	0	0	1	1	15.5641	-0.58668	-0.586451	-0.000241225	1	1.60763e-07	54	10.0907	1.41467e-07
2	0	0	1	1	15.6591	-0.57718	-0.57696	-0.000232556	1	1.38397e-07	54	10.1857	1.34175e-07
2	0	0	1	1	15.7541	-0.56768	-0.567465	-0.0002177	1	1.17119e-07	54	10.2807	1.23537e-07
2	0	0	1	1	15.8491	-0.55818	-0.558004	-0.000204028	1	9.68764e-08	54	10.3757	1.13848e-07
2	0	0	1	1	15.9441	-0.54868	-0.548476	-0.000200093	1	7.76264e-08	54	10.4707	1.09746e-07
2	0	0	1	1	16.0391	-0.53918	-0.538974	-0.000189905	1	5.93313e-08	54	10.5657	1.02354e-07
2	0	0	1	1	16.1341	-0.529679	-0.529502	-0.000171919	1	4.19578e-08	54	10.6607	9.10313e-08
2	0	0	1	1	16.2291	-0.520179	-0.520004	-0.000170678	1	2.55276e-08	54	10.7557	8.87534e-08
2	0	0	1	1	16.3241	-0.510679	-0.510479	-0.000161577	1	1.00567e-08	54	10.8507	8.24815e-08
2	0	0	1	1	16.4191	-0.501179	-0.501002	-0.000142839	1	-4.47346e-09	54	10.9457	7.15627e-08
2	0	0	1	1	16.5141	-0.491679	-0.491483	-0.000139314	1	-1.80908e-08	54	11.0407	6.84703e-08
2	0	0	1	1	16.6091	-0.482178	-0.481979	-0.000130921	1	-3.07098e-08	54	11.1357	6.31013e-08
2	0	0	1	1	16.7041	-0.472678	-0.472487	-0.000115067	1	-4.23474e-08	54	11.2307	5.43677e-08
2	0	0	1	1	16.7991	-0.463178	-0.463006	-0.00010438	1	-5.30021e-08	54	11.3257	4.83284e-08
2	0	0	1	1	16.8941	-0.453678	-0.453495	-9.77878e-05	1	-6.25772e-08	54	11.4207	4.43463e-08
2	0	0	1	1	16.9891	-0.444178	-0.443982	-8.35551e-05	1	-7.1e-08	54	11.5157	3.70969e-08
2	0	0	1	1	17.0841	-0.434678	-0.434526	-6.52011e-05	1	-7.82497e-08	54	11.6107	2.83316e-08
2	0	0	1	1	17.1791	-0.425177	-0.425004	-5.91612e-05	1	-8.42639e-08	54	11.7057	2.51437e-08
2	0	0	1	1	17.2741	-0.415677	-0.415495	-4.58851e-05	1	-8.89707e-08	54	11.8007	1.90651e-08
2	0	0	1	1	17.3991	-0.403177	-0.402502	-2.19254e-05	1	-9.3302e-08	55	11.9257	8.82502e-09
2	0	0	1	1	17.4941	-0.393677	-0.393427	-1.11471e-05	1	-9.47839e-08	55	12.0207	4.38556e-09
2	1	0	1	1	17.5891	-0.384177	-0.384339	8.68131e-06	1	-9.4907e-08	55	0.02	-3.33657e-09
2	1	0	1	1	17.6841	-0.374676	-0.375093	2.39909e-05	1	-9.34839e-08	55	0.115	-8.9988e-09
2	1	0	1	1	17.7791	-0.365176	-0.365591	3.89324e-05	1	-9.0416e-08	55	0.21	-1.42333e-08
2	1	0	1	1	17.8741	-0.355676	-0.356229	5.95285e-05	1	-8.56568e-08	55	0.305	-2.12058e-08
2	1	0	1	1	17.9691	-0.346176	-0.346935	7.98773e-05	1	-7.9147e-08	55	0.4	-2.77123e-08
2	1	0	1	1	18.0641	-0.336676	-0.337312	9.50687e-05	1	-7.08523e-08	55	0.495	-3.20678e-08
2	1	0	1	1	18.1891	-0.324175	-0.322721	0.000131578	1	-5.66835e-08	54	0.62	-4.24629e-08
2	1	0	1	1	18.2841	-0.314675	-0.313875	0.00014644	1	-4.37292e-08	54	0.715	-4.59639e-08
2	1	0	1	1	18.3791	-0.305175	-0.304665	0.000157733	1	-2.92737e-08	54	0.81	-4.80558e-08
2	1	0	1	1	18.4741	-0.295675	-0.295324	0.00017518	1	-1.32199e-08	54	0.905	-5.17347e-08
2	1	0	1	1	18.5691	-0.286175	-0.285949	0.000197428	1	4.31654e-09	54	1	-5.64541e-08
2	1	0	1	1	18.6641	-0.276675	-0.276485	0.000203212	1	2.32615e-08	54	1.095	-5.6185e-08
2	1	0	1	1	18.7591	-0.267174	-0.266978	0.00021434	1	4.33959e-08	54	1.19	-5.72242e-08
2	1	0	1	1	18.8541	-0.257674	-0.257492	0.000231078	1	6.44695e-08	54	1.285	-5.95007e-08
2	1	0	1	1	18.9491	-0.248174	-0.247996	0.000231124	1	8.628e-08	54	1.38	-5.73176e-08
2	1	0	1	1	19.0441	-0.238674	-0.238475	0.000233662	1	1.08612e-07	54	1.475	-5.57224e-08
2	1	0	1	1	19.1391	-0.229174	-0.228971	0.000242242	1	1.31263e-07	54	1.57	-5.54666e-08
2	1	0	1	1	19.2341	-0.219674	-0.219488	0.000240423	1	1.54006e-07	54	1.665	-5.277e-08
2	1	0	1	1	19.3291	-0.210173	-0.209963	0.00023686	1	1.76769e-07	54	1.76	-4.97318e-08
2	1	0	1	1	19.4241	-0.200673	-0.200457	0.000238918	1	1.9952e-07	54	1.855	-4.78927e-08
2	1	0	1	1	19.5191	-0.191173	-0.190995	0.000241549	1	2.22165e-07	54	1.95	-4.61347e-08
2	1	0	1	1	19.6141	-0.181673	-0.181454	0.00023515	1	2.4474e-07	54	2.045	-4.2669e-08
2	1	0	1	1	19.7091	-0.172173	-0.171935	0.000235229	1	2.67321e-07	54	2.14	-4.04442e-08
2	1	0	1	1	19.8041	-0.162672	-0.162493	0.00024334	1	2.89899e-07	54	2.235	-3.9541e-08
2	1	0	1	1	19.8991	-0.153172	-0.152977	0.000236995	1	3.12563e-07	54	2.33	-3.62547e-08
2	1	0	1	1	19.9941	-0.143672	-0.143463	0.000237611	1	3.35362e-07	54	2.425	-3.40884e-08
2	1	0	1	1	20.0817	-0.134922	-0.134702	0.000240241	2	3.56505e-07	54	2.5126	-3.2361e-08
2	1	0	1	1	20.1767	-0.125422	-0.125218	0.000242434	2	3.7969e-07	54	2.6076	-3.0357e-08
2	1	0	1	1	20.2717	-0.115922	-0.115724	0.000252978	2	4.03106e-07	54	2.7026	-2.92756e-08
2	1	0	1	1	20.3667	-0.106421	-0.106223	0.000249595	2	4.26801e-07	54	2.7976	-2.65128e-08
2	1	0	1	1	20.4617	-0.0969212	-0.0967205	0.000251733	2	4.50832e-07	54	2.8926	-2.43478e-08
2	1	0	1	1	20.5567	-0.087421	-0.0872356	0.000261378	2	4.75191e-07	54	2.9876	-2.28015e-08
2	1	0	1	1	20.6517	-0.0779208	-0.0777499	0.000263314	2	4.99941e-07	54	3.0826	-2.04726e-08
2	1	0	1	1	20.7467	-0.0684207	-0.0682337	0.000265794	2	5.25184e-07	54	3.1776	-1.81361e-08
2	1	0	1	1	20.8417	-0.0589205	-0.0587502	0.000275366	2	5.50963e-07	54	3.2726	-1.61778e-08
2	1	0	1	1	20.9367	-0.0494203	-0.049284	0.000284255	2	5.77357e-07	54	3.3676	-1.40092e-08
2	1	0	1	1	21.0317	-0.0399201	-0.0397583	0.000286942	2	6.04475e-07	54	3.4626	-1.14083e-08
2	1	0	1	1	21.1267	-0.0304199	-0.0302574	0.000298105	2	6.32461e-07	54	3.5576	-9.01988e-09
2	1	0	1	1	21.2217	-0.0209198	-0.0207914	0.000315796	2	6.61471e-07	54	3.6526	-6.56583e-09
2	1	0	1	1	21.3167	-0.0114196	-0.0112818	0.000324789	2	6.91788e-07	54	3.7476	-3.66422e-09
2	1	0	1	1	21.4117	-0.00191941	-0.00179664	0.000344804	2	7.23811e-07	54	3.8426	-6.19491e-10
2	1	0	1	1	21.5067	0.00758077	0.00766861	0.000378457	2	7.58076e-07	54	3.9376	2.90224e-09
2	1	0	1	1	21.6017	0.0170809	0.0171517	0.000409631	2	7.95284e-07	54	4.0326	7.02587e-09
2	1	0	1	1	21.6967	0.0265811	0.0266158	0.000456605	2	8.36477e-07	54	4.1276	1.21529e-08
2	1	0	1	1	21.7917	0.0360813	0.0360335	0.00052461	2	8.82963e-07	54	4.2226	1.89035e-08
2	1	0	1	1	21.8867	0.0455815	0.0454245	0.000608897	2	9.36462e-07	54	4.3176	2.76588e-08
2	1	0	1	1	21.9817	0.0550816	0.0548448	0.000716351	2	9.99241e-07	54	4.4126	3.92881e-08
2	1	0	1	1	22.0767	0.0645818	0.0642094	0.000863292	2	1.07414e-06	54	4.5076	5.54315e-08
2	1	0	1	1	22.1717	0.074082	0.0734056	0.00108443	2	1.16545e-06	54	4.6026	7.9603e-08
2	1	0	1	1	22.2967	0.0865822	0.0872798	0.00298373	2	1.39713e-06	53	4.7276	2.60419e-07
2	1	0	1	1	22.3917	0.0960824	0.0961444	0.00450055	2	1.763e-06	53	4.8226	4.32703e-07
2	1	0	1	1	22.4867	0.105583	0.105709	0.00449233	2	2.19431e-06	53	4.9176	4.74881e-07
2	1	0	1	1	22.5817	0.115083	0.115243	0.00437631	2	2.61537e-06	53	5.0126	5.04339e-07
2	1	0	1	1	22.6767	0.124583	0.124776	0.00430237	2	3.02789e-06	53	5.1076	5.36831e-07
2	1	0	1	1	22.7717	0.134083	0.134281	0.00423214	2	3.43302e-06	53	5.2026	5.68298e-07
2	1	0	1	1	22.8667	0.143583	0.143792	0.00413956	2	3.83048e-06	53	5.2976	5.95236e-07
2	1	0	1	1	22.9617	0.153083	0.153286	0.00405985	2	4.22029e-06	53	5.3926	6.22316e-07
2	1	0	1	1	23.0567	0.162584	0.162831	0.00390073	2	4.60007e-06	53	5.4876	6.35159e-07
2	1	0	1	1	23.1517	0.172084	0.17267	0.00254852	2	4.91656e-06	53	5.5826	4.40053e-07
2	1	0	1	1	23.2467	0.181584	0.18228	0.00146002	2	5.10907e-06	53	5.6776	2.66132e-07
2	1	0	1	1	23.3417	0.191084	0.191735	0.000639075	2	5.1961e-06	53	5.7726	1.22533e-07
2	1	0	1	1	23.4367	0.200584	0.201066	0.000493925	2	5.24833e-06	53	5.8676	9.93117e-08
2	1	0	1	1	23.5617	0.213085	0.21255	0.000412693	2	5.30475e-06	54	5.9926	8.7718e-08
2	1	0	1	1	23.6567	0.222585	0.222434	0.000401708	2	5.34374e-06	54	6.0876	8.93534e-08
2	1	0	1	1	23.7517	0.232085	0.232163	0.0003749	2	5.38052e-06	54	6.1826	8.70378e-08
2	1	0	1	1	23.8467	0.241585	0.241791	0.000357628	2	5.4155e-06	54	6.2776	8.64713e-08
2	1	0	1	1	23.9417	0.251085	0.251306	0.000352264	2	5.4491e-06	54	6.3726	8.85261e-08
2	1	0	1	1	24.0367	0.260585	0.260821	0.000337925	2	5.4817e-06	54	6.4676	8.8138e-08
2	1	0	1	1	24.1317	0.270086	0.270339	0.000329216	2	5.51355e-06	54	6.5626	8.89999e-08
2	1	0	1	1	24.2267	0.279586	0.279833	0.000326018	2	5.54476e-06	54	6.6576	9.12306e-08
2	1	0	1	1	24.3217	0.289086	0.289299	0.000321904	2	5.57542e-06	54	6.7526	9.31266e-08
2	1	0	1	1	24.4167	0.298586	0.29883	0.00031564	2	5.60569e-06	54	6.8476	9.43225e-08
2	1	0	1	1	24.5117	0.308086	0.308337	0.000312124	2	5.63562e-06	54	6.9426	9.62393e-08
2	1	0	1	1	24.6067	0.317586	0.317811	0.000313198	2	5.66516e-06	54	7.0376	9.95379e-08
2	1	0	1	1	24.7017	0.327087	0.327322	0.000305518	2	5.69445e-06	54	7.1326	1.00003e-07
2	1	0	1	1	24.7967	0.336587	0.336826	0.000302884	2	5.72361e-06	54	7.2276	1.02019e-07
2	1	0	1	1	24.8917	0.346087	0.346299	0.000307727	2	5.75249e-06	54	7.3226	1.06566e-07
2	1	0	1	1	24.9867	0.355587	0.355806	0.000301423	2	5.78127e-06	54	7.4176	1.07248e-07
2	1	0	1	1	25.0817	0.365087	0.36532	0.000299815	2	5.81001e-06	54	7.5126	1.09528e-07
2	1	0	1	1	25.1767	0.374588	0.374798	0.000302838	2	5.83861e-06	54	7.6076	1.13503e-07
2	1	0	1	1	25.2717	0.384088	0.384285	0.000300681	2	5.86718e-06	54	7.7026	1.15547e-07
2	1	0	1	1	25.3668	0.393588	0.393821	0.000298838	2	5.89584e-06	54	7.7977	1.17688e-07
2	1	0	1	1	25.4488	0.398238	0.399184	5.27666e-05	2	5.91783e-06	54	7.8797	2.10636e-08
2	0	0	1	1	25.5439	0.388738	0.389637	-9.11691e-05	2	5.91232e-06	54	0.0801	-3.55228e-08
2	0	0	1	1	25.6389	0.379238	0.379896	-0.000110157	2	5.90257e-06	54	0.1751	-4.18481e-08
2	0	0	1	1	25.7339	0.369737	0.370265	-0.000125678	2	5.89142e-06	54	0.2701	-4.65341e-08
2	0	0	1	1	25.8289	0.360237	0.360689	-0.00013219	2	5.8793e-06	54	0.3651	-4.76797e-08
2	0	0	1	1	25.9239	0.350737	0.351122	-0.000136162	2	5.8664e-06	54	0.4601	-4.78096e-08
2	0	0	1	1	26.0189	0.341237	0.341613	-0.000147473	2	5.85287e-06	54	0.5551	-5.03787e-08
2	0	0	1	1	26.1139	0.331737	0.332111	-0.000153365	2	5.8388e-06	54	0.6501	-5.09342e-08
2	0	0	1	1	26.2089	0.322237	0.322598	-0.000150737	2	5.82424e-06	54	0.7451	-4.86276e-08
2	0	0	1	1	26.3039	0.312736	0.313087	-0.000160533	2	5.8093e-06	54	0.8401	-5.02606e-08
2	0	0	1	1	26.3989	0.303236	0.303598	-0.00016513	2	5.79398e-06	54	0.9351	-5.01333e-08
2	0	0	1	1	26.4939	0.293736	0.294075	-0.000164353	2	5.77832e-06	54	1.0301	-4.8332e-08
2	0	0	1	1	26.5889	0.284236	0.284574	-0.000169473	2	5.76232e-06	54	1.1251	-4.82275e-08
2	0	0	1	1	26.6839	0.274736	0.275075	-0.000175344	2	5.74602e-06	54	1.2201	-4.82328e-08
2	0	0	1	1	26.7789	0.265236	0.265571	-0.000176194	2	5.72943e-06	54	1.3151	-4.6792e-08
2	0	0	1	1	26.8739	0.255735	0.256056	-0.000175725	2	5.71253e-06	54	1.4101	-4.49954e-08
2	0	0	1	1	26.9689	0.246235	0.246571	-0.000184052	2	5.69539e-06	54	1.5051	-4.53819e-08
2	0	0	1	1	27.0639	0.236735	0.237079	-0.000186745	2	5.67797e-06	54	1.6001	-4.42733e-08
2	0	0	1	1	27.1589	0.227235	0.227538	-0.000184237	2	5.66024e-06	54	1.6951	-4.1921e-08
2	0	0	1	1	27.2539	0.217735	0.218062	-0.000192241	2	5.64223e-06	54	1.7901	-4.19203e-08
2	0	0	1	1	27.3489	0.208234	0.208543	-0.000195937	2	5.62396e-06	54	1.8851	-4.08612e-08
2	0	0	1	1	27.4439	0.198734	0.199047	-0.000194245	2	5.6054e-06	54	1.9801	-3.86638e-08
2	0	0	1	1	27.5389	0.189234	0.189527	-0.000200394	2	5.58651e-06	54	2.0751	-3.798e-08
2	0	0	1	1	27.6339	0.179734	0.180051	-0.000206299	2	5.56731e-06	54	2.1701	-3.71442e-08
2	0	0	1	1	27.7289	0.170234	0.170555	-0.000207072	2	5.54772e-06	54	2.2651	-3.53173e-08
2	0	0	1	1	27.8239	0.160734	0.161041	-0.00021011	2	5.52777e-06	54	2.3601	-3.38363e-08
2	0	0	1	1	27.9189	0.151233	0.151576	-0.000218553	2	5.50745e-06	54	2.4551	-3.31274e-08
2	0	0	1	1	28.0139	0.141733	0.142067	-0.000222227	2	5.4867e-06	54	2.5501	-3.15712e-08
2	0	0	1	1	28.1089	0.132233	0.132558	-0.000221356	2	5.4655e-06	54	2.6451	-2.93425e-08
2	0	0	1	1	28.2039	0.122733	0.123071	-0.000232195	2	5.44383e-06	54	2.7401	-2.85765e-08
2	0	0	1	1	28.2989	0.113233	0.113564	-0.000237868	2	5.42172e-06	54	2.8351	-2.70131e-08
2	0	0	1	1	28.3939	0.103733	0.104064	-0.000236977	2	5.3991e-06	54	2.9301	-2.46606e-08
2	0	0	1	1	28.4889	0.0942324	0.0945704	-0.000246183	2	5.37598e-06	54	3.0251	-2.32816e-08
2	0	0	1	1	28.5839	0.0847322	0.0850977	-0.000253685	2	5.3524e-06	54	3.1201	-2.1588e-08
2	0	0	1	1	28.6789	0.075232	0.0755712	-0.000254542	2	5.32831e-06	54	3.2151	-1.9236e-08
2	0	0	1	1	28.7739	0.0657318	0.0660543	-0.000260364	2	5.3037e-06	54	3.3101	-1.71982e-08
2	0	0	1	1	28.8689	0.0562317	0.0565928	-0.000269942	2	5.27858e-06	54	3.4051	-1.52768e-08
2	0	0	1	1	28.9639	0.0467315	0.0470811	-0.000274175	2	5.25288e-06	54	3.5001	-1.29084e-08
2	0	0	1	1	29.0589	0.0372313	0.0375628	-0.000277396	2	5.22655e-06	54	3.5951	-1.04198e-08
2	0	0	1	1	29.1539	0.0277311	0.0280764	-0.000290193	2	5.19956e-06	54	3.6901	-8.14758e-09
2	0	0	1	1	29.2489	0.018231	0.0185846	-0.000298272	2	5.17185e-06	54	3.7851	-5.54326e-09
2	0	0	1	1	29.3439	0.00873079	0.00910501	-0.000300722	2	5.14332e-06	54	3.8801	-2.73807e-09
2	0	0	1	1	29.4389	-0.000769384	-0.000401452	-0.000318368	2	5.11381e-06	54	3.9751	1.27809e-10
2	0	0	1	1	29.5339	-0.0102696	-0.00987361	-0.000334009	2	5.08307e-06	54	4.0701	3.29787e-09
2	0	0	1	1	29.6289	-0.0197697	-0.0193644	-0.000353641	2	5.05052e-06	54	4.1651	6.84804e-09
2	0	0	1	1	29.7239	-0.0292699	-0.0287863	-0.000411058	2	5.01448e-06	54	4.2601	1.18329e-08
2	0	0	1	1	29.8189	-0.0387701	-0.0380587	-0.000544274	2	4.9696e-06	54	4.3551	2.07144e-08
2	0	0	1	1	29.9139	-0.0482703	-0.0472646	-0.000732782	2	4.9104e-06	54	4.4501	3.46347e-08
2	0	0	1	1	30.0389	-0.0607705	-0.0615061	-0.00152811	2	4.78119e-06	53	4.5751	9.39882e-08
2	0	0	1	1	30.1339	-0.0702707	-0.070391	-0.00192329	2	4.6152e-06	53	4.6701	1.35382e-07
2	0	0	1	1	30.2289	-0.0797709	-0.0796235	-0.00209461	2	4.42316e-06	53	4.7651	1.6678e-07
2	0	0	1	1	30.3239	-0.0892711	-0.0890431	-0.00214833	2	4.22056e-06	53	4.8601	1.91294e-07
2	0	0	1	1	30.4189	-0.0987712	-0.0984854	-0.00210834	2	4.01764e-06	53	4.9551	2.0764e-07
2	0	0	1	1	30.5139	-0.108271	-0.107979	-0.00204001	2	3.82056e-06	53	5.0501	2.20279e-07
2	0	0	1	1	30.6089	-0.117772	-0.117474	-0.00193624	2	3.63121e-06	53	5.1451	2.27458e-07
2	0	0	1	1	30.7039	-0.127272	-0.126969	-0.0018268	2	3.45196e-06	53	5.2401	2.31948e-07
2	0	0	1	1	30.7989	-0.136772	-0.136489	-0.00167531	2	3.2855e-06	53	5.3351	2.28662e-07
2	0	0	1	1	30.894	-0.146272	-0.14599	-0.00147877	2	3.1352e-06	53	5.4302	2.15886e-07
2	0	0	1	1	30.989	-0.155772	-0.155538	-0.00127588	2	3.00429e-06	53	5.5252	1.98449e-07
2	0	0	1	1	31.084	-0.165272	-0.16504	-0.00111177	2	2.89142e-06	53	5.6202	1.83487e-07
2	0	0	1	1	31.179	-0.174773	-0.174503	-0.00100654	2	2.79135e-06	53	5.7152	1.75643e-07
2	0	0	1	1	31.274	-0.184273	-0.183988	-0.000944195	2	2.69893e-06	53	5.8102	1.73721e-07
2	0	0	1	1	31.369	-0.193773	-0.193482	-0.000908769	2	2.6112e-06	53	5.9052	1.75831e-07
2	0	0	1	1	31.464	-0.203273	-0.202992	-0.000878565	2	2.52645e-06	53	6.0002	1.78341e-07
2	0	0	1	1	31.559	-0.212773	-0.212461	-0.000846609	2	2.44453e-06	53	6.0952	1.79872e-07
2	0	0	1	1	31.654	-0.222274	-0.221963	-0.000834014	2	2.36452e-06	53	6.1902	1.85121e-07
2	0	0	1	1	31.749	-0.231774	-0.231444	-0.000817079	2	2.28615e-06	53	6.2852	1.89108e-07
2	0	0	1	1	31.844	-0.241274	-0.240977	-0.00079269	2	2.20922e-06	53	6.3802	1.9102e-07
2	0	0	1	1	31.939	-0.250774	-0.250451	-0.000785779	2	2.13406e-06	53	6.4752	1.96799e-07
2	0	0	1	1	32.034	-0.260274	-0.259962	-0.000772063	2	2.06037e-06	53	6.5702	2.00707e-07
2	0	0	1	1	32.129	-0.269774	-0.269459	-0.000747799	2	1.98817e-06	53	6.6652	2.01501e-07
2	0	0	1	1	32.224	-0.279275	-0.278949	-0.000733064	2	1.91755e-06	53	6.7602	2.04487e-07
2	0	0	1	1	32.319	-0.288775	-0.288455	-0.000727574	2	1.84842e-06	53	6.8552	2.09872e-07
2	0	0	1	1	32.414	-0.298275	-0.297958	-0.000698041	2	1.781e-06	53	6.9502	2.07987e-07
2	0	0	1	1	32.509	-0.307775	-0.307451	-0.00067758	2	1.71517e-06	53	7.0452	2.08322e-07
2	0	0	1	1	32.604	-0.317275	-0.316953	-0.000669591	2	1.65103e-06	53	7.1402	2.12229e-07
2	0	0	1	1	32.699	-0.326776	-0.326451	-0.000651373	2	1.58842e-06	53	7.2352	2.12641e-07
2	0	0	1	1	32.794	-0.336276	-0.335981	-0.000623914	2	1.52747e-06	53	7.3302	2.09623e-07
2	0	0	1	1	32.889	-0.345776	-0.345459	-0.000616076	2	1.4683e-06	53	7.4252	2.12829e-07
2	0	0	1	1	32.984	-0.355276	-0.354958	-0.000598269	2	1.41092e-06	53	7.5202	2.1236e-07
2	0	0	1	1	33.079	-0.364776	-0.364468	-0.000574769	2	1.35489e-06	53	7.6152	2.09485e-07
2	0	0	1	1	33.174	-0.374276	-0.373972	-0.000560833	2	1.30089e-06	53	7.7102	2.09736e-07
2	0	0	1	1	33.269	-0.383777	-0.383464	-0.000545678	2	1.24846e-06	53	7.8052	2.09248e-07
2	0	0	1	1	33.364	-0.393277	-0.392964	-0.000523622	2	1.19777e-06	53	7.9002	2.05764e-07
2	0	0	1	1	33.459	-0.402777	-0.402469	-0.000501656	2	1.14882e-06	53	7.9952	2.01901e-07
2	0	0	1	1	33.554	-0.412277	-0.411999	-0.000486652	2	1.10179e-06	53	8.0902	2.005e-07
2	0	0	1	1	33.649	-0.421777	-0.421479	-0.000469869	2	1.05642e-06	53	8.1852	1.9804e-07
2	0	0	1	1	33.744	-0.431278	-0.430997	-0.000448595	2	1.01242e-06	53	8.2802	1.93343e-07
2	0	0	1	1	33.869	-0.443778	-0.442519	-0.000431854	2	9.56978e-07	54	8.4052	1.91104e-07
2	0	0	1	1	33.964	-0.453278	-0.452494	-0.000411864	2	9.16896e-07	54	8.5002	1.86366e-07
2	0	0	1	1	34.059	-0.462778	-0.462265	-0.000402376	2	8.78035e-07	54	8.5952	1.86004e-07
2	0	0	1	1	34.154	-0.472278	-0.471871	-0.000390335	2	8.4048e-07	54	8.6902	1.84188e-07
2	0	0	1	1	34.249	-0.481778	-0.481454	-0.000374652	2	8.04333e-07	54	8.7852	1.80378e-07
2	0	0	1	1	34.344	-0.491279	-0.49102	-0.000355856	2	7.69444e-07	54	8.8802	1.74733e-07
2	0	0	1	1	34.439	-0.500779	-0.500516	-0.000350092	2	7.35731e-07	54	8.9752	1.75227e-07
2	0	0	1	1	34.534	-0.510279	-0.510007	-0.000338234	2	7.03348e-07	54	9.0702	1.72502e-07
2	0	0	1	1	34.629	-0.519779	-0.51954	-0.000319615	2	6.72034e-07	54	9.1652	1.66053e-07
2	0	0	1	1	34.724	-0.529279	-0.529011	-0.00031382	2	6.41785e-07	54	9.2602	1.66014e-07
2	0	0	1	1	34.819	-0.53878	-0.538514	-0.000303206	2	6.12743e-07	54	9.3552	1.63281e-07
2	0	0	1	1	34.914	-0.54828	-0.548021	-0.000286079	2	5.8477e-07	54	9.4502	1.56778e-07
2	0	0	1	1	35.009	-0.55778	-0.557528	-0.000278151	2	5.57827e-07	54	9.5452	1.55077e-07
2	0	0	1	1	35.104	-0.56728	-0.567031	-0.000272625	2	5.31819e-07	54	9.6402	1.54587e-07
2	0	0	1	1	35.199	-0.57678	-0.576505	-0.000261124	2	5.06631e-07	54	9.7352	1.5054e-07
2	0	0	1	1	35.294	-0.586281	-0.586037	-0.000248418	2	4.82212e-07	54	9.8302	1.45582e-07
2	0	0	1	1	35.389	-0.595781	-0.595524	-0.000245695	2	4.58701e-07	54	9.9252	1.46317e-07
2	0	0	1	0	35.4745	-0.595681	-0.595442	-0.000228251	2	4.38572e-07	54	10.0107	1.3591e-07
2	0	0	1	0	35.5695	-0.58618	-0.585959	-0.000219036	2	4.17619e-07	54	10.1057	1.28346e-07
2	0	0	1	0	35.6645	-0.57668	-0.576476	-0.000202425	2	3.97647e-07	54	10.2007	1.16693e-07
2	0	0	1	0	35.7595	-0.56718	-0.566996	-0.000195154	2	3.78564e-07	54	10.2957	1.10651e-07
2	0	0	1	0	35.8545	-0.55768	-0.557467	-0.000191048	2	3.6031e-07	54	10.3907	1.06503e-07
2	0	0	1	0	35.9495	-0.54818	-0.547982	-0.000179893	2	3.42876e-07	54	10.4857	9.85778e-08
2	0	0	1	0	36.0445	-0.53868	-0.53851	-0.000166058	2	3.26242e-07	54	10.5807	8.94241e-08
2	0	0	1	0	36.1395	-0.529179	-0.528967	-0.000165244	2	3.10418e-07	54	10.6757	8.74085e-08
2	0	0	1	0	36.2345	-0.519679	-0.519498	-0.000156807	2	2.95403e-07	54	10.7707	8.1461e-08
2	0	0	1	0	36.3295	-0.510179	-0.510005	-0.000138879	2	2.81223e-07	54	10.8657	7.08288e-08
2	0	0	1	0	36.4245	-0.500679	-0.500508	-0.000137896	2	2.67871e-07	54	10.9607	6.9018e-08
2	0	0	1	0	36.5195	-0.491179	-0.491	-0.000130099	2	2.55426e-07	54	11.0557	6.38785e-08
2	0	0	1	0	36.6145	-0.481678	-0.481499	-0.00011385	2	2.43826e-07	54	11.1507	5.48184e-08
2	0	0	1	0	36.7095	-0.472178	-0.472006	-0.000107675	2	2.33106e-07	54	11.2457	5.0823e-08
2	0	0	1	0	36.8045	-0.462678	-0.462508	-0.000100373	2	2.23353e-07	54	11.3407	4.64235e-08
2	0	0	1	0	36.8995	-0.453178	-0.453003	-8.60985e-05	2	2.14627e-07	54	11.4357	3.90029e-08
2	0	0	1	0	36.9945	-0.443678	-0.44353	-7.16276e-05	2	2.06921e-07	54	11.5307	3.1769e-08
2	0	0	1	0	37.0895	-0.434178	-0.434022	-6.62875e-05	2	2.00314e-07	54	11.6257	2.87702e-08
2	0	0	1	0	37.1845	-0.424677	-0.424503	-5.31894e-05	2	1.94881e-07	54	11.7207	2.25791e-08
2	0	0	1	0	37.3095	-0.412177	-0.411304	-3.29005e-05	2	1.89617e-07	55	11.8457	1.35321e-08
2	0	0	1	0	37.4045	-0.402677	-0.402322	-2.17523e-05	2	1.87159e-07	55	11.9407	8.75144e-09
2	0	0	1	0	37.4995	-0.393177	-0.39328	-2.09803e-06	2	1.86012e-07	55	12.0357	8.25114e-10
2	1	0	1	0	37.5945	-0.383677	-0.383986	1.09718e-05	2	1.86299e-07	55	0.065	-4.21302e-09
2	1	0	1	0	37.6895	-0.374176	-0.374532	2.5395e-05	2	1.88111e-07	55	0.16	-9.51126e-09
2	1	0	1	0	37.7845	-0.364676	-0.365165	4.53828e-05	2	1.91543e-07	55	0.255	-1.65722e-08
2	1	0	1	0	37.8795	-0.355176	-0.35587	6.42003e-05	2	1.96621e-07	55	0.35	-2.28469e-08
2	1	0	1	0	37.9745	-0.345676	-0.346267	7.85528e-05	2	2.03401e-07	55	0.445	-2.72002e-08
2	1	0	1	0	38.0695	-0.336176	-0.33681	9.7991e-05	2	2.11929e-07	55	0.54	-3.30044e-08
2	1	0	1	0	38.1945	-0.323675	-0.322335	0.000132859	2	2.26386e-07	54	0.665	-4.2825e-08
2	1	0	1	0	38.2895	-0.314175	-0.313407	0.000141637	2	2.39411e-07	54	0.76	-4.439e-08
2	1	0	1	0	38.3845	-0.304675	-0.304189	0.000159314	2	2.53908e-07	54	0.855	-4.84615e-08
2	1	0	1	0	38.4795	-0.295175	-0.294883	0.000181227	2	2.69918e-07	54	0.95	-5.34407e-08
2	1	0	1	0	38.5745	-0.285675	-0.285437	0.000188992	2	2.87392e-07	54	1.045	-5.39451e-08
2	1	0	1	0	38.6695	-0.276175	-0.275975	0.000201221	2	3.06211e-07	54	1.14	-5.55319e-08
2	1	0	1	0	38.7645	-0.266674	-0.26651	0.000220139	2	3.26128e-07	54	1.235	-5.86693e-08
2	1	0	1	0	38.8595	-0.257174	-0.257006	0.000221793	2	3.46947e-07	54	1.33	-5.70022e-08
2	1	0	1	0	38.9545	-0.247674	-0.247489	0.00022634	2	3.68487e-07	54	1.425	-5.60167e-08
2	1	0	1	0	39.0495	-0.238174	-0.237992	0.000235886	2	3.90489e-07	54	1.52	-5.61392e-08
2	1	0	1	0	39.1445	-0.228674	-0.228488	0.000236125	2	4.1274e-07	54	1.615	-5.39518e-08
2	1	0	1	0	39.2395	-0.219174	-0.218961	0.000233071	2	4.35135e-07	54	1.71	-5.10334e-08
2	1	0	1	0	39.3345	-0.209673	-0.209459	0.000235684	2	4.57549e-07	54	1.805	-4.93662e-08
2	1	0	1	0	39.4295	-0.200173	-0.200001	0.000238225	2	4.7991e-07	54	1.9	-4.76454e-08
2	1	0	1	0	39.5245	-0.190673	-0.190461	0.000231981	2	5.02195e-07	54	1.995	-4.41834e-08
2	1	0	1	0	39.6195	-0.181173	-0.180963	0.000231565	2	5.24451e-07	54	2.09	-4.19046e-08
2	1	0	1	0	39.7145	-0.171673	-0.171473	0.000239158	2	5.46678e-07	54	2.185	-4.1009e-08
2	1	0	1	0	39.8095	-0.162172	-0.161953	0.000232463	2	5.68909e-07	54	2.28	-3.76481e-08
2	1	0	1	0	39.9045	-0.152672	-0.152475	0.000232767	2	5.91239e-07	54	2.375	-3.54911e-08
2	1	0	1	0	39.998	-0.143322	-0.143172	0.000242192	2	6.13332e-07	54	2.4685	-3.46751e-08
2	1	0	1	0	40.0871	-0.134422	-0.13421	0.000236158	3	6.34523e-07	54	2.5576	-3.16948e-08
2	1	0	1	0	40.1821	-0.124922	-0.124743	0.000245928	3	6.5733e-07	54	2.6526	-3.06779e-08
2	1	0	1	0	40.2771	-0.115422	-0.115234	0.00024261	3	6.80376e-07	54	2.7476	-2.79571e-08
2	1	0	1	0	40.3721	-0.105921	-0.105709	0.00024399	3	7.03681e-07	54	2.8426	-2.57918e-08
2	1	0	1	0	40.4671	-0.0964212	-0.0962257	0.000252286	3	7.27261e-07	54	2.9376	-2.42764e-08
2	1	0	1	0	40.5621	-0.086921	-0.0867293	0.000254543	3	7.51144e-07	54	3.0326	-2.20763e-08
2	1	0	1	0	40.6571	-0.0774208	-0.0772218	0.000254964	3	7.75394e-07	54	3.1276	-1.96888e-08
2	1	0	1	0	40.7521	-0.0679207	-0.0677361	0.000261876	3	8.00077e-07	54	3.2226	-1.77384e-08
2	1	0	1	0	40.8471	-0.0584205	-0.0582465	0.000271266	3	8.25235e-07	54	3.3176	-1.58003e-08
2	1	0	1	0	40.9421	-0.0489203	-0.0487447	0.000271798	3	8.50974e-07	54	3.4126	-1.32487e-08
2	1	0	1	0	41.0371	-0.0394201	-0.0392407	0.000280059	3	8.77402e-07	54	3.5076	-1.09897e-08
2	1	0	1	0	41.1321	-0.0299199	-0.0297641	0.000295592	3	9.0461e-07	54	3.6026	-8.79803e-09
2	1	0	1	0	41.2271	-0.0204198	-0.0202631	0.000301295	3	9.32796e-07	54	3.6976	-6.10516e-09
2	1	0	1	0	41.3221	-0.0109196	-0.0107699	0.000314839	3	9.62238e-07	54	3.7926	-3.39079e-09
2	1	0	1	0	41.4171	-0.0014194	-0.00129117	0.000340537	3	9.93269e-07	54	3.8876	-4.39692e-10
2	1	0	1	0	41.5121	0.00808078	0.00817466	0.000361964	3	1.0264e-06	54	3.9826	2.95893e-09
2	1	0	1	0	41.6071	0.017581	0.017663	0.000393275	3	1.06234e-06	54	4.0776	6.94642e-09
2	1	0	1	0	41.7021	0.0270811	0.0271166	0.000442054	3	1.10201e-06	54	4.1726	1.1987e-08
2	1	0	1	0	41.7971	0.0365813	0.0365392	0.000504073	3	1.14667e-06	54	4.2676	1.84184e-08
2	1	0	1	0	41.8921	0.0460815	0.0459793	0.000580049	3	1.198e-06	54	4.3626	2.66702e-08
2	1	0	1	0	41.9871	0.0555817	0.0553784	0.000686037	3	1.25813e-06	54	4.4576	3.79916e-08
2	1	0	1	0	42.0821	0.0650818	0.0646993	0.000831036	3	1.32979e-06	54	4.5526	5.37675e-08
2	1	0	1	0	42.1771	0.074582	0.0739783	0.001036	3	1.41733e-06	54	4.6476	7.66412e-08
2	1	0	1	0	42.3021	0.0870822	0.0878131	0.00292315	3	1.63478e-06	53	4.7726	2.56691e-07
2	1	0	1	0	42.3971	0.0965824	0.0966765	0.00450456	3	2.00103e-06	53	4.8676	4.35485e-07
2	1	0	1	0	42.4921	0.106083	0.106242	0.00431324	3	2.42252e-06	53	4.9626	4.58249e-07
2	1	0	1	0	42.5871	0.115583	0.115777	0.00415689	3	2.82449e-06	53	5.0576	4.81271e-07
2	1	0	1	0	42.6821	0.125083	0.125289	0.00405601	3	3.21445e-06	53	5.1526	5.08172e-07
2	1	0	1	0	42.7771	0.134583	0.134798	0.00394855	3	3.59452e-06	53	5.2476	5.32257e-07
2	1	0	1	0	42.8721	0.144083	0.144304	0.00383496	3	3.96442e-06	53	5.3426	5.53401e-07
2	1	0	1	0	42.9671	0.153583	0.153809	0.00372457	3	4.32392e-06	53	5.4376	5.72875e-07
2	1	0	1	0	43.0621	0.163084	0.163546	0.00288734	3	4.65773e-06	53	5.5326	4.72211e-07
2	1	0	1	0	43.1571	0.172584	0.17327	0.00147891	3	4.8619e-06	53	5.6276	2.5625e-07
2	1	0	1	0	43.2521	0.182084	0.182756	0.000615811	3	4.95208e-06	53	5.7226	1.12543e-07
2	1	0	1	0	43.3471	0.191584	0.192079	0.000467433	3	5.00175e-06	53	5.8176	8.97838e-08
2	1	0	1	0	43.4721	0.204084	0.203561	0.000383226	3	5.05472e-06	54	5.9426	7.801e-08
2	1	0	1	0	43.5671	0.213585	0.21342	0.000382299	3	5.09151e-06	54	6.0376	8.15902e-08
2	1	0	1	0	43.6621	0.223085	0.223145	0.000357702	3	5.12641e-06	54	6.1326	7.98193e-08
2	1	0	1	0	43.7571	0.232585	0.232754	0.000341854	3	5.15972e-06	54	6.2276	7.95679e-08
2	1	0	1	0	43.8521	0.242085	0.242303	0.000333715	3	5.19183e-06	54	6.3226	8.08603e-08
2	1	0	1	0	43.9471	0.251585	0.251793	0.000325675	3	5.22304e-06	54	6.4176	8.20028e-08
2	1	0	1	0	44.0421	0.261085	0.261318	0.000315063	3	5.25355e-06	54	6.5126	8.23316e-08
2	1	0	1	0	44.1371	0.270586	0.270809	0.000312593	3	5.28347e-06	54	6.6076	8.46529e-08
2	1	0	1	0	44.2321	0.280086	0.280286	0.000311434	3	5.31296e-06	54	6.7026	8.72904e-08
2	1	0	1	0	44.3271	0.289586	0.289826	0.000302477	3	5.34206e-06	54	6.7976	8.76655e-08
2	1	0	1	0	44.4221	0.299086	0.299321	0.000298498	3	5.37084e-06	54	6.8926	8.93467e-08
2	1	0	1	0	44.5171	0.308586	0.308816	0.000301248	3	5.39925e-06	54	6.9876	9.30303e-08
2	1	0	1	0	44.6121	0.318086	0.318302	0.000294556	3	5.4274e-06	54	7.0826	9.37578e-08
2	1	0	1	0	44.7071	0.327587	0.32782	0.000292559	3	5.45545e-06	54	7.1776	9.59067e-08
2	1	0	1	0	44.8021	0.337087	0.337321	0.00029384	3	5.48331e-06	54	7.2726	9.91184e-08
2	1	0	1	0	44.8971	0.346587	0.346791	0.000291037	3	5.51095e-06	54	7.3676	1.00929e-07
2	1	0	1	0	44.9921	0.356087	0.356288	0.000287751	3	5.53855e-06	54	7.4626	1.02522e-07
2	1	0	1	0	45.0871	0.365587	0.365801	0.000290831	3	5.56612e-06	54	7.5576	1.06386e-07
2	1	0	1	0	45.1821	0.375088	0.375282	0.000294248	3	5.5937e-06	54	7.6526	1.10426e-07
2	1	0	1	0	45.2771	0.384588	0.384821	0.000288124	3	5.62135e-06	54	7.7476	1.10876e-07
2	1	0	1	0	45.3722	0.394088	0.394307	0.000288947	3	5.64897e-06	54	7.8427	1.13934e-07
2	1	0	1	0	45.4542	0.397738	0.398731	1.32938e-05	3	5.66882e-06	54	7.9247	5.30064e-09
2	0	0	1	0	45.5493	0.388238	0.389096	-9.7516e-05	3	5.66191e-06	54	0.0901	-3.79431e-08
2	0	0	1	0	45.6443	0.378738	0.379382	-0.000119729	3	5.6514e-06	54	0.1851	-4.54231e-08
2	0	0	1	0	45.7393	0.369237	0.369731	-0.000131452	3	5.63967e-06	54	0.2801	-4.8602e-08
2	0	0	1	0	45.8343	0.359737	0.360173	-0.000133358	3	5.62703e-06	54	0.3751	-4.80319e-08
2	0	0	1	0	45.9293	0.350237	0.350638	-0.000144365	3	5.61372e-06	54	0.4701	-5.06199e-08
2	0	0	1	0	46.0243	0.340737	0.341113	-0.000152033	3	5.59984e-06	54	0.5651	-5.18605e-08
2	0	0	1	0	46.1193	0.331237	0.331594	-0.000151537	3	5.58547e-06	54	0.6601	-5.02488e-08
2	0	0	1	0	46.2143	0.321737	0.322081	-0.000157695	3	5.57068e-06	54	0.7551	-5.07906e-08
2	0	0	1	0	46.3093	0.312236	0.312593	-0.000163864	3	5.55551e-06	54	0.8501	-5.12227e-08
2	0	0	1	0	46.4043	0.302736	0.303097	-0.000165398	3	5.54e-06	54	0.9451	-5.01317e-08
2	0	0	1	0	46.4993	0.293236	0.29356	-0.000165374	3	5.5242e-06	54	1.0401	-4.85472e-08
2	0	0	1	0	46.5943	0.283736	0.284087	-0.000173514	3	5.50807e-06	54	1.1351	-4.92931e-08
2	0	0	1	0	46.6893	0.274236	0.274567	-0.000176188	3	5.49167e-06	54	1.2301	-4.83756e-08
2	0	0	1	0	46.7843	0.264735	0.265054	-0.000172258	3	5.475e-06	54	1.3251	-4.56576e-08
2	0	0	1	0	46.8793	0.255235	0.255574	-0.000181668	3	5.45806e-06	54	1.4201	-4.64298e-08
2	0	0	1	0	46.9743	0.245735	0.246079	-0.000184899	3	5.44083e-06	54	1.5151	-4.54998e-08
2	0	0	1	0	47.0693	0.236235	0.236571	-0.000182777	3	5.42337e-06	54	1.6101	-4.32396e-08
2	0	0	1	0	47.1643	0.226735	0.227062	-0.000187648	3	5.40563e-06	54	1.7051	-4.26078e-08
2	0	0	1	0	47.2593	0.217235	0.217574	-0.000193224	3	5.38765e-06	54	1.8001	-4.20405e-08
2	0	0	1	0	47.3543	0.207734	0.208057	-0.000192999	3	5.36937e-06	54	1.8951	-4.01547e-08
2	0	0	1	0	47.4493	0.198234	0.198522	-0.000194331	3	5.35078e-06	54	1.9901	-3.8579e-08
2	0	0	1	0	47.5443	0.188734	0.189058	-0.000202267	3	5.33192e-06	54	2.0851	-3.82401e-08
2	0	0	1	0	47.6393	0.179234	0.179567	-0.000205055	3	5.31276e-06	54	2.1801	-3.68211e-08
2	0	0	1	0	47.7343	0.169734	0.170045	-0.000202823	3	5.29325e-06	54	2.2751	-3.44889e-08
2	0	0	1	0	47.8293	0.160234	0.160565	-0.000212272	3	5.27341e-06	54	2.3701	-3.40835e-08
2	0	0	1	0	47.9243	0.150733	0.151074	-0.000216916	3	5.25323e-06	54	2.4651	-3.27703e-08
2	0	0	1	0	48.0193	0.141233	0.141548	-0.000215607	3	5.23265e-06	54	2.5601	-3.05188e-08
2	0	0	1	0	48.1143	0.131733	0.132073	-0.000223092	3	5.21166e-06	54	2.6551	-2.94645e-08
2	0	0	1	0	48.2093	0.122233	0.122578	-0.000230405	3	5.19025e-06	54	2.7501	-2.82427e-08
2	0	0	1	0	48.3043	0.112733	0.113066	-0.000231477	3	5.1684e-06	54	2.8451	-2.61722e-08
2	0	0	1	0	48.3993	0.103233	0.103568	-0.000235183	3	5.14609e-06	54	2.9401	-2.43576e-08
2	0	0	1	0	48.4943	0.0937324	0.0940858	-0.000244366	3	5.12331e-06	54	3.0351	-2.29914e-08
2	0	0	1	0	48.5893	0.0842322	0.0845608	-0.000248235	3	5.10009e-06	54	3.1301	-2.09909e-08
2	0	0	1	0	48.6843	0.074732	0.0750546	-0.000248522	3	5.07637e-06	54	3.2251	-1.86527e-08
2	0	0	1	0	48.7793	0.0652318	0.0655765	-0.000259297	3	5.05216e-06	54	3.3201	-1.70038e-08
2	0	0	1	0	48.8743	0.0557317	0.0560876	-0.000265017	3	5.02748e-06	54	3.4151	-1.48642e-08
2	0	0	1	0	48.9693	0.0462315	0.046553	-0.000265185	3	5.00224e-06	54	3.5101	-1.23452e-08
2	0	0	1	0	49.0643	0.0367313	0.0370708	-0.000275198	3	4.97644e-06	54	3.6051	-1.02018e-08
2	0	0	1	0	49.1593	0.0272311	0.0275942	-0.000283775	3	4.95006e-06	54	3.7001	-7.83055e-09
2	0	0	1	0	49.2543	0.017731	0.0180854	-0.000287348	3	4.92302e-06	54	3.7951	-5.19681e-09
2	0	0	1	0	49.3493	0.00823078	0.00855543	-0.00029407	3	4.89526e-06	54	3.8901	-2.51589e-09
2	0	0	1	0	49.4443	-0.00126939	-0.000903266	-0.000307859	3	4.8667e-06	54	3.9851	2.78078e-10
2	0	0	1	0	49.5393	-0.0107696	-0.0103851	-0.000319059	3	4.83713e-06	54	4.0801	3.31347e-09
2	0	0	1	0	49.6343	-0.0202697	-0.0198926	-0.000333489	3	4.80606e-06	54	4.1751	6.63397e-09
2	0	0	1	0	49.7293	-0.0297699	-0.0292917	-0.000389419	3	4.77202e-06	54	4.2701	1.14068e-08
2	0	0	1	0	49.8243	-0.0392701	-0.0386072	-0.00050175	3	4.73024e-06	54	4.3651	1.93712e-08
2	0	0	1	0	49.9193	-0.0487703	-0.0477611	-0.000699958	3	4.67472e-06	54	4.4601	3.34308e-08
2	0	0	1	0	50.0443	-0.0612705	-0.0620597	-0.00144682	3	4.55152e-06	53	4.5851	8.97895e-08
2	0	0	1	0	50.1393	-0.0707707	-0.0709283	-0.00181965	3	4.39462e-06	53	4.6801	1.29065e-07
2	0	0	1	0	50.2343	-0.0802709	-0.0801493	-0.0019889	3	4.21243e-06	53	4.7751	1.59409e-07
2	0	0	1	0	50.3293	-0.0897711	-0.0895211	-0.0020334	3	4.0202e-06	53	4.8701	1.82033e-07
2	0	0	1	0	50.4243	-0.0992712	-0.0990076	-0.00198584	3	3.82905e-06	53	4.9651	1.96613e-07
2	0	0	1	0	50.5193	-0.108771	-0.108501	-0.00188299	3	3.64515e-06	53	5.0601	2.04307e-07
2	0	0	1	0	50.6143	-0.118272	-0.117999	-0.00174188	3	3.47252e-06	53	5.1551	2.0554e-07
2	0	0	1	0	50.7093	-0.127772	-0.127503	-0.00158298	3	3.31394e-06	53	5.2501	2.01834e-07
2	0	0	1	0	50.8043	-0.137272	-0.137017	-0.0013815	3	3.1731e-06	53	5.3451	1.89288e-07
2	0	0	1	0	50.8994	-0.146772	-0.146523	-0.00116685	3	3.05189e-06	53	5.4402	1.7097e-07
2	0	0	1	0	50.9944	-0.156272	-0.156039	-0.00101006	3	2.94883e-06	53	5.5352	1.57609e-07
2	0	0	1	0	51.0894	-0.165773	-0.165521	-0.000903987	3	2.85845e-06	53	5.6302	1.49629e-07
2	0	0	1	0	51.1844	-0.175273	-0.174984	-0.000842051	3	2.77534e-06	53	5.7252	1.47345e-07
2	0	0	1	0	51.2794	-0.184773	-0.184465	-0.000817876	3	2.69633e-06	53	5.8202	1.5087e-07
2	0	0	1	0	51.3744	-0.194273	-0.193962	-0.000795433	3	2.62032e-06	53	5.9152	1.54283e-07
2	0	0	1	0	51.4694	-0.203773	-0.20347	-0.000766084	3	2.54613e-06	53	6.0102	1.55875e-07
2	0	0	1	0	51.5644	-0.213273	-0.212959	-0.000760624	3	2.47329e-06	53	6.1052	1.61981e-07
2	0	0	1	0	51.6594	-0.222774	-0.222442	-0.00074899	3	2.40179e-06	53	6.2002	1.66607e-07
2	0	0	1	0	51.7544	-0.232274	-0.23197	-0.000733899	3	2.33147e-06	53	6.2952	1.70242e-07
2	0	0	1	0	51.8494	-0.241774	-0.241461	-0.000721434	3	2.26193e-06	53	6.3902	1.74198e-07
2	0	0	1	0	51.9444	-0.251274	-0.250961	-0.000718821	3	2.19343e-06	53	6.4852	1.80396e-07
2	0	0	1	0	52.0394	-0.260774	-0.260448	-0.000702715	3	2.12616e-06	53	6.5802	1.83021e-07
2	0	0	1	0	52.1344	-0.270274	-0.26996	-0.000683314	3	2.06014e-06	53	6.6752	1.84468e-07
2	0	0	1	0	52.2294	-0.279775	-0.279463	-0.000679678	3	1.99519e-06	53	6.7702	1.89945e-07
2	0	0	1	0	52.3244	-0.289275	-0.288951	-0.000664392	3	1.93158e-06	53	6.8652	1.91977e-07
2	0	0	1	0	52.4194	-0.298775	-0.298454	-0.000640811	3	1.86946e-06	53	6.9602	1.91253e-07
2	0	0	1	0	52.5144	-0.308275	-0.307961	-0.000635794	3	1.80868e-06	53	7.0552	1.95799e-07
2	0	0	1	0	52.6094	-0.317775	-0.317462	-0.000621673	3	1.74908e-06	53	7.1502	1.97358e-07
2	0	0	1	0	52.7044	-0.327276	-0.326968	-0.000599302	3	1.69125e-06	53	7.2452	1.95953e-07
2	0	0	1	0	52.7994	-0.336776	-0.336473	-0.000584756	3	1.63473e-06	53	7.3402	1.96755e-07
2	0	0	1	0	52.8944	-0.346276	-0.345967	-0.000573939	3	1.5796e-06	53	7.4352	1.98564e-07
2	0	0	1	0	52.9894	-0.355776	-0.355468	-0.00055582	3	1.52614e-06	53	7.5302	1.97576e-07
2	0	0	1	0	53.0844	-0.365276	-0.364954	-0.000529411	3	1.47431e-06	53	7.6252	1.93211e-07
2	0	0	1	0	53.1794	-0.374776	-0.374454	-0.000521932	3	1.42417e-06	53	7.7202	1.95439e-07
2	0	0	1	0	53.2744	-0.384277	-0.383973	-0.000507706	3	1.37542e-06	53	7.8152	1.94945e-07
2	0	0	1	0	53.3694	-0.393777	-0.393484	-0.000484669	3	1.32809e-06	53	7.9102	1.9071e-07
2	0	0	1	0	53.4644	-0.403277	-0.402975	-0.000475438	3	1.28219e-06	53	8.0052	1.9159e-07
2	0	0	1	0	53.5594	-0.412777	-0.41249	-0.000459716	3	1.23791e-06	53	8.1002	1.89628e-07
2	0	0	1	0	53.6844	-0.425277	-0.424043	-0.000427267	3	1.18221e-06	54	8.2252	1.8118e-07
2	0	0	1	0	53.7794	-0.434778	-0.434009	-0.000422292	3	1.14177e-06	54	8.3202	1.83278e-07
2	0	0	1	0	53.8744	-0.444278	-0.44375	-0.000406236	3	1.10271e-06	54	8.4152	1.80267e-07
2	0	0	1	0	53.9694	-0.453778	-0.453395	-0.000383755	3	1.06497e-06	54	8.5102	1.73993e-07
2	0	0	1	0	54.0644	-0.463278	-0.462956	-0.000377808	3	1.02857e-06	54	8.6052	1.74909e-07
2	0	0	1	0	54.1594	-0.472778	-0.472471	-0.000364899	3	9.93547e-07	54	8.7002	1.72404e-07
2	0	0	1	0	54.2544	-0.482278	-0.481991	-0.000344983	3	9.59825e-07	54	8.7952	1.66279e-07
2	0	0	1	0	54.3494	-0.491779	-0.491526	-0.000334349	3	9.27319e-07	54	8.8902	1.64341e-07
2	0	0	1	0	54.4444	-0.501279	-0.501019	-0.000326312	3	8.96104e-07	54	8.9852	1.63489e-07
2	0	0	1	0	54.5394	-0.510779	-0.510509	-0.000311438	3	8.66005e-07	54	9.0802	1.58992e-07
2	0	0	1	0	54.6344	-0.520279	-0.520046	-0.000294255	3	8.37039e-07	54	9.1752	1.53026e-07
2	0	0	1	0	54.7294	-0.529779	-0.529494	-0.000291622	3	8.09127e-07	54	9.2702	1.54412e-07
2	0	0	1	0	54.8244	-0.53928	-0.539017	-0.000281085	3	7.82247e-07	54	9.3652	1.5151e-07
2	0	0	1	0	54.9194	-0.54878	-0.548532	-0.000261372	3	7.5633e-07	54	9.4602	1.43371e-07
2	0	0	1	0	55.0144	-0.55828	-0.558003	-0.000261138	3	7.31371e-07	54	9.5552	1.45716e-07
2	0	0	1	0	55.1094	-0.56778	-0.567492	-0.00025166	3	7.07326e-07	54	9.6502	1.42815e-07
2	0	0	1	0	55.2044	-0.57728	-0.577002	-0.000236461	3	6.84146e-07	54	9.7452	1.36439e-07
2	0	0	1	0	55.2994	-0.586781	-0.586532	-0.000230208	3	6.61742e-07	54	9.8402	1.35024e-07
2	0	0	1	0	55.3944	-0.596281	-0.596004	-0.000226184	3	6.40169e-07	54	9.9352	1.34807e-07
2	0	0	1	0	55.4316	-0.600006	-0.599722	-0.00022255	3	6.31911e-07	54	9.9724	1.33468e-07