File: test_trajectories/cyclic_voltammetry/biologic4.txt
Ewe/V	<I>/mA	time/s	cycle number
-0.109561	0.00033312	0.000000000000000E+000	1
-0.104818	0.00229481	0.9499	1
-0.0998204	0.00303183	1.9497	1
-0.0948343	0.00342154	2.9495	1
-0.089843	0.00364433	3.9494	1
-0.0848455	0.00374761	4.9492	1
-0.0798304	0.00377984	5.949	1
-0.0748463	0.00376018	6.9488	1
-0.0698382	0.00372398	7.9486	1
-0.0648636	0.0036739	8.9484	1
-0.0598451	0.00358642	9.9482	1
-0.0548557	0.00350217	10.948	1
-0.0498661	0.00341881	11.9478	1
-0.0448667	0.00334212	12.9476	1
-0.0398652	0.00325794	13.9474	1
-0.0348558	0.00316896	14.9472	1
-0.0298588	0.00309334	15.947	1
-0.0248594	0.00302838	16.9468	1
-0.0198723	0.00295106	17.9466	1
-0.0149118	0.00288778	18.9464	1
-0.00988222	0.00283709	19.9462	1
-0.0048807	0.00277968	20.946	1
0.000146925	0.00273193	21.9458	1
0.00511766	0.00269252	22.9456	1
0.0100842	0.00265387	23.9455	1
0.0151033	0.00261807	24.9453	1
0.020134	0.00258883	25.9451	1
0.0251128	0.00256998	26.9449	1
0.0301369	0.00255294	27.9448	1
0.0351537	0.00252587	28.9446	1
0.0401166	0.00251053	29.9444	1
0.0451162	0.00250085	30.9442	1
0.0501054	0.00249767	31.944	1
0.0550986	0.00249158	32.9438	1
0.0601118	0.00248245	33.9436	1
0.0651267	0.00247426	34.9434	1
0.0701511	0.00247108	35.9432	1
0.0751567	0.00247814	36.943	1
0.0801295	0.00248326	37.9428	1
0.0850988	0.00248444	38.9426	1
0.0901258	0.00248311	39.9424	1
0.0951232	0.00249029	40.9422	1
0.100093	0.00250193	41.942	1
0.105098	0.00251439	42.9418	1
0.110122	0.0025186	43.9416	1
0.115153	0.0025283	44.9414	1
0.120145	0.00254735	45.9412	1
0.125146	0.00255875	46.941	1
0.13014	0.00256525	47.9409	1
0.135154	0.00257702	48.9407	1
0.14016	0.00259687	49.9405	1
0.145139	0.00262091	50.9403	1
0.150136	0.00263282	51.9401	1
0.155126	0.00264367	52.94	1
0.160128	0.00266276	53.9398	1
0.16512	0.00268794	54.9396	1
0.170127	0.00271093	55.9394	1
0.175099	0.00273392	56.9392	1
0.18008	0.00275995	57.939	1
0.185104	0.0027787	58.9388	1
0.190096	0.00280134	59.9386	1
0.195121	0.0028311	60.9384	1
0.200148	0.00286371	61.9382	1
0.205154	0.00288938	62.938	1
0.210127	0.00291482	63.9378	1
0.21511	0.00295134	64.9376	1
0.220126	0.00299224	65.9374	1
0.225122	0.00302449	66.9372	1
0.230138	0.00305533	67.937	1
0.235126	0.00310033	68.9368	1
0.2401	0.00314826	69.9366	1
0.245111	0.0031941	70.9364	1
0.250096	0.00323175	71.9362	1
0.25511	0.00328221	72.9361	1
0.260103	0.00333717	73.9359	1
0.265069	0.00339553	74.9357	1
0.270101	0.00344671	75.9356	1
0.275106	0.00350709	76.9354	1
0.28007	0.00358097	77.9352	1
0.285065	0.00365157	78.935	1
0.290073	0.00371752	79.9348	1
0.295083	0.00379884	80.9346	1
0.300056	0.00388621	81.9344	1
0.305044	0.00396593	82.9342	1
0.310057	0.00405637	83.934	1
0.315042	0.00416165	84.9338	1
0.320061	0.00426058	85.9336	1
0.325043	0.00436149	86.9334	1
0.330033	0.00448157	87.9332	1
0.335029	0.00460037	88.933	1
0.339818	0.00471233	89.8928	1
0.33663	0.0041286	90.6732	1
0.331631	0.00373385	91.673	1
0.32663	0.00342861	92.6728	1
0.321659	0.00316995	93.6726	1
0.316639	0.00293971	94.6724	1
0.311645	0.00272208	95.6722	1
0.306667	0.00252753	96.672	1
0.301669	0.00235237	97.6719	1
0.296683	0.00219419	98.6717	1
0.291648	0.00202937	99.6715	1
0.286674	0.00188219	100.671	1
0.281671	0.00174764	101.671	1
0.276689	0.00161837	102.671	1
0.271678	0.00149739	103.671	1
0.26669	0.00137767	104.671	1
0.261702	0.00125865	105.67	1
0.256699	0.00115392	106.67	1
0.2517	0.00105905	107.67	1
0.246719	0.000967934	108.67	1
0.241689	0.000877585	109.67	1
0.2367	0.000790435	110.669	1
0.231715	0.000698388	111.669	1
0.226705	0.000620222	112.669	1
0.221742	0.000554767	113.669	1
0.21675	0.000482158	114.669	1
0.211745	0.000414058	115.668	1
0.206748	0.000343097	116.668	1
0.201723	0.000276883	117.668	1
0.196748	0.000220737	118.668	1
0.191746	0.000167348	119.668	1
0.186719	0.000112495	120.667	1
0.181731	5.94496e-05	121.667	1
0.176728	3.32719e-06	122.667	1
0.171753	-4.63626e-05	123.667	1
0.166748	-9.33293e-05	124.667	1
0.161733	-0.000133056	125.667	1
0.156765	-0.000174564	126.666	1
0.151757	-0.000213489	127.666	1
0.14675	-0.000254965	128.666	1
0.141725	-0.000295107	129.666	1
0.136707	-0.000336635	130.666	1
0.131723	-0.000368635	131.665	1
0.126735	-0.000395297	132.665	1
0.121745	-0.000428136	133.665	1
0.116752	-0.000465707	134.665	1
0.111761	-0.000494055	135.665	1
0.106769	-0.000514172	136.664	1
0.101731	-0.000541908	137.664	1
0.0967251	-0.000565315	138.664	1
0.0917138	-0.000592456	139.664	1
0.0867151	-0.000620635	140.664	1
0.0817148	-0.000638619	141.663	1
0.0767377	-0.00065389	142.663	1
0.0717551	-0.000679449	143.663	1
0.0667434	-0.000698538	144.663	1
0.0617408	-0.000715058	145.663	1
0.0567559	-0.000733451	146.662	1
0.0517583	-0.000761635	147.662	1
0.046763	-0.0007811	148.662	1
0.041777	-0.000793728	149.662	1
0.0367607	-0.000815549	150.662	1
0.0317755	-0.000839505	151.662	1
0.0267597	-0.000869376	152.661	1
0.021772	-0.000896207	153.661	1
0.0167569	-0.000921143	154.661	1
0.0117386	-0.000953581	155.661	1
0.00675454	-0.000990891	156.661	1
0.0017543	-0.00102855	157.66	1
-0.00321834	-0.00106514	158.66	1
-0.00824448	-0.00110702	159.66	1
-0.0132494	-0.0011596	160.66	1
-0.0182558	-0.00121987	161.66	1
-0.0232295	-0.00127975	162.659	1
-0.0282263	-0.00134112	163.659	1
-0.0332516	-0.00141372	164.659	1
-0.0382385	-0.00149653	165.659	1
-0.0432319	-0.00159405	166.659	1
-0.0482294	-0.00171336	167.658	1
-0.053245	-0.00184557	168.658	1
-0.0582366	-0.00198781	169.658	1
-0.0632075	-0.00214805	170.658	1
-0.0682309	-0.00234352	171.658	1
-0.0732229	-0.00256637	172.657	1
-0.0782094	-0.00281165	173.657	1
-0.083194	-0.00307648	174.657	1
-0.0881893	-0.00339018	175.657	1
-0.0932163	-0.00373697	176.657	1
-0.0981938	-0.00410909	177.657	1
-0.103207	-0.00450593	178.656	1
-0.108219	-0.00495116	179.656	1
-0.113199	-0.00542999	180.656	1
-0.118176	-0.00592492	181.656	1
-0.123163	-0.00642577	182.656	1
-0.128155	-0.00696377	183.655	1
-0.133167	-0.00751722	184.655	1
-0.13813	-0.0080181	185.655	1
-0.14315	-0.00852193	186.655	1
-0.148163	-0.00897359	187.655	1
-0.153119	-0.00934778	188.654	1
-0.158099	-0.00964267	189.654	1
-0.16309	-0.00987401	190.654	1
-0.16812	-0.010093	191.654	1
-0.17311	-0.010213	192.654	1
-0.178097	-0.0103115	193.653	1
-0.183268	-0.0103033	194.673	1
-0.188307	-0.0103338	195.673	1
-0.193313	-0.0105211	196.673	1
-0.198314	-0.0105668	197.673	1
-0.203308	-0.0106076	198.673	1
-0.208326	-0.010736	199.672	1
-0.213326	-0.0108782	200.672	1
-0.218297	-0.0109766	201.672	1
-0.223305	-0.0110251	202.672	1
-0.228303	-0.0111315	203.672	1
-0.233277	-0.0112977	204.671	1
-0.238246	-0.0114036	205.671	1
-0.243282	-0.0114529	206.671	1
-0.248305	-0.0115972	207.671	1
-0.253279	-0.0117466	208.671	1
-0.258293	-0.0119482	209.67	1
-0.263281	-0.0120237	210.67	1
-0.268281	-0.0121612	211.67	1
-0.273295	-0.0122923	212.67	1
-0.2783	-0.0125816	213.67	1
-0.283297	-0.0127704	214.669	1
-0.288286	-0.012972	215.669	1
-0.293286	-0.0130814	216.669	1
-0.298305	-0.0132733	217.669	1
-0.303288	-0.0135648	218.669	1
-0.308275	-0.0138683	219.668	1
-0.313262	-0.0139433	220.668	1
-0.318241	-0.0141316	221.668	1
-0.323266	-0.0143429	222.668	1
-0.328241	-0.0148577	223.668	1
-0.333256	-0.0150937	224.668	1
-0.338242	-0.0152011	225.667	1
-0.343225	-0.0154873	226.667	1
-0.348268	-0.0158559	227.667	1
-0.353255	-0.016163	228.667	1
-0.358262	-0.0162505	229.667	1
-0.36323	-0.0166648	230.666	1
-0.368258	-0.0170823	231.666	1
-0.373266	-0.0175105	232.666	1
-0.378251	-0.0177261	233.666	1
-0.383263	-0.0179427	234.666	1
-0.388271	-0.0184103	235.665	1
-0.393265	-0.0187531	236.665	1
-0.39827	-0.0192843	237.665	1
-0.403255	-0.0194514	238.665	1
-0.408253	-0.0197073	239.665	1
-0.413293	-0.0203923	240.664	1
-0.418262	-0.0207213	241.664	1
-0.423261	-0.0211048	242.664	1
-0.428259	-0.0213234	243.664	1
-0.433232	-0.0219467	244.664	1
-0.438247	-0.0223459	245.663	1
-0.443259	-0.0227561	246.663	1
-0.448277	-0.0232254	247.663	1
-0.453274	-0.0236922	248.663	1
-0.458266	-0.0241844	249.663	1
-0.46328	-0.0246872	250.663	1
-0.468253	-0.0251453	251.662	1
-0.473255	-0.0254382	252.662	1
-0.478256	-0.0259007	253.662	1
-0.483258	-0.0264322	254.662	1
-0.48826	-0.0268565	255.662	1
-0.493267	-0.0271974	256.661	1
-0.498246	-0.0276984	257.661	1
-0.503301	-0.0280676	258.661	1
-0.508238	-0.0281483	259.661	1
-0.513258	-0.028592	260.661	1
-0.518243	-0.0289986	261.66	1
-0.523203	-0.0291	262.66	1
-0.528264	-0.0293494	263.66	1
-0.533279	-0.0296654	264.66	1
-0.538252	-0.0299154	265.66	1
-0.543262	-0.0301171	266.659	1
-0.548228	-0.0298582	267.659	1
-0.553241	-0.0299386	268.659	1
-0.558233	-0.0301337	269.659	1
-0.563217	-0.0299885	270.659	1
-0.568218	-0.0299618	271.659	1
-0.573235	-0.0300926	272.658	1
-0.578227	-0.0302804	273.658	1
-0.583243	-0.030281	274.658	1
-0.588246	-0.0300085	275.658	1
-0.593235	-0.0298084	276.658	1
-0.598228	-0.029825	277.657	1
-0.603231	-0.0300781	278.657	1
-0.608223	-0.0298728	279.657	1
-0.613174	-0.0297291	280.657	1
-0.618236	-0.0298293	281.657	1
-0.623243	-0.029734	282.656	1
-0.628229	-0.0299096	283.656	1
-0.633261	-0.0296176	284.656	1
-0.638223	-0.0297146	285.656	1
-0.643213	-0.0295733	286.656	1
-0.648197	-0.0296365	287.655	1
-0.653196	-0.0296704	288.655	1
-0.65822	-0.0297198	289.655	1
-0.663212	-0.0294894	290.655	1
-0.668202	-0.0293839	291.655	1
-0.673226	-0.0295433	292.654	1
-0.678216	-0.0294362	293.654	1
-0.683241	-0.0293104	294.654	1
-0.688207	-0.0292968	295.654	1
-0.69322	-0.029314	296.654	1
-0.698236	-0.0294387	297.654	1
-0.703184	-0.029225	298.653	1
-0.708186	-0.0289097	299.653	1
-0.71321	-0.0290323	300.653	1
-0.718186	-0.0289089	301.653	1
-0.723169	-0.0291144	302.653	1
-0.72818	-0.0291076	303.652	1
-0.733215	-0.0288574	304.652	1
-0.738197	-0.0288234	305.652	1
-0.743211	-0.0287313	306.652	1
-0.748204	-0.0289107	307.652	1
-0.753191	-0.0288522	308.651	1
-0.758229	-0.0288037	309.651	1
-0.763216	-0.0287261	310.651	1
-0.768199	-0.028903	311.651	1
-0.773205	-0.0291041	312.651	1
-0.778187	-0.0290838	313.65	1
-0.783181	-0.0292119	314.65	1
-0.788166	-0.029289	315.65	1
-0.793202	-0.0295154	316.65	1
-0.79818	-0.0298024	317.65	1
-0.803185	-0.0299519	318.65	1
-0.808174	-0.0302527	319.649	1
-0.813186	-0.0308004	320.649	1
-0.818187	-0.0313686	321.649	1
-0.82319	-0.0316012	322.649	1
-0.828178	-0.0319116	323.649	1
-0.833167	-0.0326866	324.648	1
-0.838197	-0.0329385	325.648	1
-0.843169	-0.0331736	326.648	1
-0.848195	-0.0336059	327.648	1
-0.853186	-0.0342742	328.648	1
-0.858169	-0.034512	329.647	1
-0.863211	-0.0347472	330.647	1
-0.868191	-0.0352456	331.647	1
-0.873216	-0.0356568	332.647	1
-0.878187	-0.0360681	333.647	1
-0.88315	-0.0364426	334.646	1
-0.888205	-0.0369158	335.646	1
-0.893164	-0.0374325	336.646	1
-0.898151	-0.0381778	337.646	1
-0.903148	-0.038653	338.646	1
-0.908162	-0.0390565	339.645	1
-0.913156	-0.0397683	340.645	1
-0.918154	-0.040525	341.645	1
-0.923174	-0.0415598	342.645	1
-0.928172	-0.0426162	343.645	1
-0.933144	-0.0432602	344.645	1
-0.938152	-0.0444301	345.644	1
-0.943133	-0.0452938	346.644	1
-0.948122	-0.046572	347.644	1
-0.953128	-0.0481369	348.644	1
-0.958141	-0.0494349	349.644	1
-0.963164	-0.0509116	350.643	1
-0.96813	-0.0524091	351.643	1
-0.973127	-0.054418	352.643	1
-0.978095	-0.056232	353.643	1
-0.983071	-0.0580509	354.643	1
-0.988097	-0.059865	355.642	1
-0.993096	-0.061901	356.642	1
-0.998122	-0.0638529	357.642	1
-1.00309	-0.0655333	358.642	1
-1.00806	-0.067315	359.642	1
-1.01305	-0.0693094	360.641	1
-1.01807	-0.0707411	361.641	1
-1.02308	-0.0718699	362.641	1
-1.02809	-0.0727136	363.641	1
-1.03309	-0.0731435	364.641	1
-1.03807	-0.0736048	365.64	1
-1.04305	-0.0729363	366.64	1
-1.04805	-0.0722584	367.64	1
-1.05307	-0.0712437	368.64	1
-1.05806	-0.0698387	369.64	1
-1.06303	-0.0680109	370.64	1
-1.06804	-0.0660208	371.639	1
-1.07303	-0.0639124	372.639	1
-1.07803	-0.0616792	373.639	1
-1.08303	-0.0593653	374.639	1
-1.08807	-0.0569874	375.639	1
-1.09305	-0.0547238	376.638	1
-1.09802	-0.0524584	377.638	1
-1.10302	-0.0502777	378.638	1
-1.10806	-0.0482412	379.638	1
-1.11303	-0.0462772	380.638	1
-1.11807	-0.0444392	381.637	1
-1.12306	-0.042754	382.637	1
-1.12806	-0.0412153	383.637	1
-1.13306	-0.0397506	384.637	1
-1.13806	-0.0384002	385.637	1
-1.1431	-0.0371949	386.636	1
-1.14808	-0.0360435	387.636	1
-1.15304	-0.0349761	388.636	1
-1.15803	-0.0340196	389.636	1
-1.16303	-0.0331221	390.636	1
-1.16806	-0.0323021	391.635	1
-1.17307	-0.0315175	392.635	1
-1.1781	-0.0307684	393.635	1
-1.18308	-0.0300548	394.635	1
-1.18805	-0.0293801	395.635	1
-1.19304	-0.0287272	396.635	1
-1.19806	-0.0280966	397.634	1
-1.20303	-0.0274758	398.634	1
-1.20801	-0.026893	399.634	1
-1.21307	-0.0263735	400.634	1
-1.21805	-0.0258911	401.634	1
-1.22305	-0.0254309	402.633	1
-1.22807	-0.025036	403.633	1
-1.23308	-0.024691	404.633	1
-1.23808	-0.0243657	405.633	1
-1.24309	-0.0240739	406.633	1
-1.24809	-0.0238192	407.632	1
-1.25308	-0.023602	408.632	1
-1.2581	-0.0233889	409.632	1
-1.26307	-0.023186	410.632	1
-1.26809	-0.0230236	411.632	1
-1.27304	-0.0228776	412.631	1
-1.27803	-0.022747	413.631	1
-1.28305	-0.0226008	414.631	1
-1.28805	-0.0224887	415.631	1
-1.29305	-0.0223908	416.631	1
-1.29808	-0.0223088	417.631	1
-1.30307	-0.022211	418.63	1
-1.30808	-0.022125	419.63	1
-1.31307	-0.0220624	420.63	1
-1.31804	-0.0220052	421.63	1
-1.32305	-0.0219363	422.63	1
-1.32804	-0.0218794	423.629	1
-1.33306	-0.0218194	424.629	1
-1.33806	-0.0217799	425.629	1
-1.33816	-0.0211071	426.269	1
-1.33316	-0.0201393	427.269	1
-1.32815	-0.0194776	428.269	1
-1.32315	-0.0189263	429.269	1
-1.31818	-0.0184588	430.269	1
-1.31319	-0.0180541	431.268	1
-1.30815	-0.0176994	432.268	1
-1.30314	-0.0173619	433.268	1
-1.29817	-0.017041	434.268	1
-1.2931	-0.0167476	435.268	1
-1.28812	-0.0164841	436.267	1
-1.2831	-0.0162326	437.267	1
-1.27808	-0.0159779	438.267	1
-1.27313	-0.0157347	439.267	1
-1.26815	-0.0155199	440.267	1
-1.26314	-0.015301	441.267	1
-1.25817	-0.0151002	442.266	1
-1.2532	-0.0148761	443.266	1
-1.24822	-0.014668	444.266	1
-1.24319	-0.0144658	445.266	1
-1.23816	-0.0142626	446.266	1
-1.23317	-0.0140739	447.265	1
-1.22815	-0.0138745	448.265	1
-1.22317	-0.013674	449.265	1
-1.21818	-0.013492	450.265	1
-1.21318	-0.0132929	451.265	1
-1.2082	-0.0130814	452.264	1
-1.20323	-0.0128647	453.264	1
-1.19822	-0.0126569	454.264	1
-1.19319	-0.0124358	455.264	1
-1.18818	-0.0121981	456.264	1
-1.18316	-0.0119488	457.263	1
-1.17821	-0.0116886	458.263	1
-1.17321	-0.0114197	459.263	1
-1.16824	-0.0111239	460.263	1
-1.16324	-0.0107965	461.263	1
-1.15823	-0.0104187	462.262	1
-1.1532	-0.0100171	463.262	1
-1.1482	-0.00958743	464.262	1
-1.14319	-0.00910937	465.262	1
-1.13816	-0.00855747	466.262	1
-1.13323	-0.0079583	467.262	1
-1.12822	-0.0072912	468.261	1
-1.12323	-0.00653109	469.261	1
-1.11823	-0.0056594	470.261	1
-1.11315	-0.00454052	471.271	1
-1.10809	-0.0035704	472.281	1
-1.1031	-0.00231224	473.28	1
-1.0981	-0.00084464	474.28	1
-1.09312	0.000848884	475.28	1
-1.08813	0.00276712	476.28	1
-1.08316	0.0049295	477.28	1
-1.07818	0.00745211	478.279	1
-1.07309	0.0104429	479.289	1
-1.06802	0.0137459	480.299	1
-1.06302	0.017484	481.299	1
-1.05804	0.021608	482.299	1
-1.05305	0.0262586	483.298	1
-1.04805	0.0314285	484.298	1
-1.04306	0.0370805	485.298	1
-1.03808	0.043109	486.298	1
-1.03305	0.0494048	487.298	1
-1.02807	0.055645	488.297	1
-1.02306	0.06152	489.297	1
-1.01806	0.0658835	490.297	1
-1.01308	0.0678161	491.297	1
-1.00805	0.0665279	492.297	1
-1.00307	0.0619795	493.297	1
-0.998069	0.0552458	494.296	1
-0.993068	0.0483963	495.296	1
-0.988075	0.0429382	496.296	1
-0.983071	0.0393796	497.296	1
-0.978042	0.0366702	498.296	1
-0.973047	0.0344912	499.295	1
-0.968019	0.032361	500.295	1
-0.963027	0.030458	501.295	1
-0.958036	0.0288967	502.295	1
-0.953018	0.0272586	503.295	1
-0.948048	0.0257774	504.294	1
-0.943062	0.0244575	505.294	1
-0.938087	0.0230903	506.294	1
-0.933054	0.0221737	507.294	1
-0.928061	0.0212119	508.294	1
-0.923063	0.0201784	509.293	1
-0.91804	0.0196084	510.293	1
-0.913053	0.0188535	511.293	1
-0.908042	0.018194	512.293	1
-0.903062	0.0175342	513.293	1
-0.898093	0.0170584	514.292	1
-0.893063	0.0168013	515.292	1
-0.888037	0.0166481	516.292	1
-0.883025	0.0163139	517.292	1
-0.878051	0.0159927	518.292	1
-0.873058	0.0157495	519.292	1
-0.868074	0.0156764	520.291	1
-0.863087	0.0158366	521.291	1
-0.858048	0.0159575	522.291	1
-0.853058	0.015606	523.291	1
-0.848031	0.016029	524.291	1
-0.843035	0.0159293	525.29	1
-0.838076	0.0159189	526.29	1
-0.833077	0.0159938	527.29	1
-0.828066	0.0159859	528.29	1
-0.823061	0.0162882	529.29	1
-0.818049	0.0164471	530.289	1
-0.813042	0.0165503	531.289	1
-0.808056	0.0166119	532.289	1
-0.803015	0.016921	533.289	1
-0.798037	0.0170999	534.289	1
-0.793024	0.0171375	535.288	1
-0.788051	0.0173659	536.288	1
-0.783066	0.017519	537.288	1
-0.778053	0.0177931	538.288	1
-0.773053	0.0179551	539.288	1
-0.768073	0.0182096	540.288	1
-0.763118	0.0181668	541.287	1
-0.758109	0.0183808	542.287	1
-0.753085	0.0183827	543.287	1
-0.748091	0.0186106	544.287	1
-0.743076	0.0189692	545.287	1
-0.738096	0.0191738	546.286	1
-0.73308	0.0190845	547.286	1
-0.728104	0.0193249	548.286	1
-0.723086	0.0196272	549.286	1
-0.718118	0.0196383	550.286	1
-0.713143	0.0197947	551.285	1
-0.708117	0.0203012	552.285	1
-0.703079	0.0203769	553.285	1
-0.698093	0.0206655	554.285	1
-0.693103	0.0210392	555.285	1
-0.688106	0.0214272	556.284	1
-0.683128	0.0216692	557.284	1
-0.678129	0.021966	558.284	1
-0.673108	0.022394	559.284	1
-0.668113	0.0228631	560.284	1
-0.663104	0.0232705	561.284	1
-0.658088	0.0236675	562.283	1
-0.653113	0.0242134	563.283	1
-0.648139	0.0246101	564.283	1
-0.643093	0.0249249	565.283	1
-0.638128	0.0254185	566.283	1
-0.633137	0.0255721	567.282	1
-0.628143	0.0258161	568.282	1
-0.623109	0.0259564	569.282	1
-0.618098	0.0259834	570.282	1
-0.613116	0.0259824	571.282	1
-0.608112	0.0259139	572.281	1
-0.603121	0.0257569	573.281	1
-0.598095	0.0257555	574.281	1
-0.593118	0.025591	575.281	1
-0.588118	0.0254538	576.281	1
-0.583134	0.0256228	577.28	1
-0.578131	0.0256259	578.28	1
-0.573116	0.0258749	579.28	1
-0.56814	0.0257955	580.28	1
-0.563121	0.0260605	581.28	1
-0.558151	0.0261996	582.279	1
-0.553169	0.0262459	583.279	1
-0.548172	0.0264344	584.279	1
-0.54316	0.02675	585.279	1
-0.538165	0.0268399	586.279	1
-0.533176	0.0269191	587.279	1
-0.528167	0.0272889	588.278	1
-0.523155	0.0273437	589.278	1
-0.518179	0.0271372	590.278	1
-0.513158	0.0273425	591.278	1
-0.508147	0.0273172	592.278	1
-0.503173	0.0273143	593.277	1
-0.49817	0.0269587	594.277	1
-0.493154	0.0271204	595.277	1
-0.488187	0.0268867	596.277	1
-0.483175	0.0266685	597.277	1
-0.478142	0.0263956	598.276	1
-0.473162	0.0262264	599.276	1
-0.468165	0.0257879	600.276	1
-0.463159	0.0254258	601.276	1
-0.458156	0.0252947	602.276	1
-0.453153	0.0249467	603.275	1
-0.448138	0.0247109	604.275	1
-0.443145	0.0246773	605.275	1
-0.438124	0.0244416	606.275	1
-0.433158	0.0240836	607.275	1
-0.428155	0.0240619	608.274	1
-0.42314	0.0242104	609.274	1
-0.418167	0.0237292	610.274	1
-0.41318	0.0235791	611.274	1
-0.40811	0.0236198	612.274	1
-0.403095	0.0235585	613.274	1
-0.398163	0.023424	614.273	1
-0.393131	0.0231467	615.273	1
-0.388182	0.0229008	616.273	1
-0.383158	0.0228077	617.273	1
-0.378138	0.0228219	618.273	1
-0.373147	0.0226562	619.272	1
-0.368166	0.022429	620.272	1
-0.363165	0.0221718	621.272	1
-0.358176	0.0217016	622.272	1
-0.353193	0.0213793	623.272	1
-0.348162	0.0211366	624.271	1
-0.343188	0.0208333	625.271	1
-0.338155	0.0203983	626.271	1
-0.333168	0.0199392	627.271	1
-0.328169	0.0198326	628.271	1
-0.323185	0.0195199	629.27	1
-0.318194	0.018902	630.27	1
-0.313209	0.0187376	631.27	1
-0.308205	0.0185781	632.27	1
-0.303207	0.0183599	633.27	1
-0.298242	0.0181266	634.27	1
-0.293191	0.0178357	635.269	1
-0.288183	0.0177192	636.269	1
-0.283172	0.0177127	637.269	1
-0.278172	0.0175788	638.269	1
-0.273204	0.0174081	639.269	1
-0.268222	0.0172579	640.268	1
-0.263201	0.0173293	641.268	1
-0.258203	0.0173342	642.268	1
-0.253197	0.0173977	643.268	1
-0.248211	0.0172176	644.268	1
-0.243179	0.0172166	645.267	1
-0.238217	0.0170339	646.267	1
-0.233208	0.0171156	647.267	1
-0.228196	0.0170846	648.267	1
-0.223204	0.0169701	649.267	1
-0.21822	0.0170008	650.266	1
-0.213209	0.017025	651.266	1
-0.208241	0.0168986	652.266	1
-0.203223	0.0167593	653.266	1
-0.198193	0.0167575	654.266	1
-0.193186	0.0168088	655.265	1
-0.18822	0.0166326	656.265	1
-0.183215	0.0165437	657.265	1
-0.178239	0.0165919	658.265	1
-0.173209	0.0165302	659.265	1
-0.168209	0.0163597	660.265	1
-0.163173	0.0163639	661.264	1
-0.158181	0.016218	662.264	1
-0.153214	0.0161989	663.264	1
-0.148227	0.0160697	664.264	1
-0.143199	0.0159168	665.264	1
-0.138168	0.0158349	666.263	1
-0.133187	0.0156705	667.263	1
-0.128212	0.0154653	668.263	1
-0.123216	0.0152636	669.263	1
-0.118222	0.0150276	670.263	1
-0.113209	0.0148502	671.262	1
-0.109443	0.0145649	672.012	2
-0.104912	0.0144007	672.922	2
-0.0999545	0.0141326	673.922	2
-0.0949402	0.0138282	674.922	2
-0.0898901	0.0135312	675.922	2
-0.0849022	0.0131791	676.921	2
-0.0799206	0.0128435	677.921	2
-0.0749509	0.0124827	678.921	2
-0.0699412	0.0121592	679.921	2
-0.0649152	0.0118409	680.921	2
-0.0599044	0.0114999	681.92	2
-0.0549241	0.0111564	682.92	2
-0.0499468	0.0108428	683.92	2
-0.0449523	0.0105504	684.92	2
-0.0399314	0.0102677	685.92	2
-0.0349004	0.00998944	686.919	2
-0.0298817	0.00973652	687.919	2
-0.0249099	0.00949016	688.919	2
-0.0199328	0.0092644	689.919	2
-0.0149582	0.0090537	690.919	2
-0.00997668	0.00887671	691.918	2
-0.00496391	0.00871705	692.918	2
6.85059e-05	0.00856609	693.918	2
0.00507446	0.00842089	694.918	2
0.0100929	0.00828713	695.918	2
0.0150591	0.00816827	696.917	2
0.0200555	0.00807339	697.917	2
0.0250218	0.00798422	698.917	2
0.0300004	0.00790344	699.917	2
0.0350586	0.00784367	700.917	2
0.0401134	0.00779226	701.917	2
0.0451068	0.0077229	702.916	2
0.0500744	0.0076631	703.916	2
0.0550218	0.00761974	704.916	2
0.0599819	0.00758585	705.916	2
0.0650694	0.00755559	706.916	2
0.0701034	0.00751896	707.915	2
0.0750894	0.0074761	708.915	2
0.080024	0.00743513	709.915	2
0.0849939	0.00740339	710.915	2
0.0900317	0.00738573	711.915	2
0.0950814	0.00736723	712.914	2
0.100068	0.00731876	713.914	2
0.105029	0.00728009	714.914	2
0.11002	0.00726621	715.914	2
0.115015	0.00724341	716.914	2
0.120047	0.00720916	717.913	2
0.125063	0.00718255	718.913	2
0.130064	0.0071481	719.913	2
0.135014	0.00710602	720.913	2
0.140024	0.00708091	721.913	2
0.145019	0.0070578	722.913	2
0.15005	0.00703523	723.912	2
0.155048	0.00700751	724.912	2
0.160058	0.00696668	725.912	2
0.165021	0.00693484	726.912	2
0.170033	0.00691543	727.912	2
0.175026	0.00689658	728.911	2
0.180061	0.00687612	729.911	2
0.185085	0.00684669	730.911	2
0.190034	0.00681286	731.911	2
0.194982	0.00679909	732.911	2
0.200008	0.00679282	733.91	2
0.205059	0.0067785	734.91	2
0.210069	0.00675208	735.91	2
0.215067	0.00672596	736.91	2
0.220056	0.00670451	737.91	2
0.225	0.00669268	738.909	2
0.229996	0.006685	739.909	2
0.235	0.0066772	740.909	2
0.240041	0.00667147	741.909	2
0.245073	0.00666733	742.909	2
0.25005	0.00666222	743.908	2
0.255047	0.00661369	744.908	2
0.260069	0.00665056	745.908	2
0.265044	0.00666238	746.908	2
0.270043	0.0066674	747.908	2
0.275025	0.00665719	748.908	2
0.280001	0.00667373	749.907	2
0.285004	0.00669975	750.907	2
0.289997	0.00670956	751.907	2
0.295019	0.00671659	752.907	2
0.300047	0.00675793	753.907	2
0.30503	0.00677868	754.906	2
0.310042	0.00680005	755.906	2
0.315027	0.00684651	756.906	2
0.320003	0.00687885	757.906	2
0.324975	0.00691353	758.906	2
0.329959	0.00697093	759.905	2
0.334983	0.00703498	760.905	2
0.339841	0.00711115	761.875	2
0.336694	0.00648089	762.665	2
0.331708	0.00602779	763.665	2
0.32675	0.00566145	764.665	2
0.321757	0.00535311	765.665	2
0.316762	0.0050771	766.665	2
0.311729	0.00482003	767.664	2
0.306707	0.00457854	768.664	2
0.30156	0.00434718	769.684	2
0.296597	0.00413382	770.684	2
0.291611	0.00394055	771.684	2
0.286603	0.00375301	772.683	2
0.281605	0.00357431	773.683	2
0.276609	0.00340965	774.683	2
0.271601	0.0032516	775.683	2
0.266584	0.00308728	776.683	2
0.261603	0.00293259	777.683	2
0.256608	0.00279555	778.682	2
0.251637	0.00266021	779.682	2
0.246626	0.00251895	780.682	2
0.241601	0.00238791	781.682	2
0.236616	0.00227037	782.682	2
0.231594	0.00214843	783.681	2
0.22662	0.00202594	784.681	2
0.221635	0.00192166	785.681	2
0.216688	0.00182053	786.681	2
0.211613	0.00172106	787.681	2
0.206606	0.00161751	788.68	2
0.201592	0.00151651	789.68	2
0.196624	0.00143373	790.68	2
0.191655	0.00135086	791.68	2
0.186666	0.00126107	792.68	2
0.181651	0.00117979	793.679	2
0.176654	0.00110899	794.679	2
0.171636	0.00102949	795.679	2
0.166644	0.000953447	796.679	2
0.161664	0.000884879	797.679	2
0.156668	0.000823379	798.678	2
0.151642	0.000747508	799.678	2
0.146661	0.0006814	800.678	2
0.141643	0.000625949	801.678	2
0.136619	0.000561849	802.678	2
0.131643	0.000495496	803.678	2
0.126668	0.000441131	804.677	2
0.12169	0.000388573	805.677	2
0.116663	0.00032798	806.677	2
0.111669	0.000268858	807.677	2
0.106657	0.000218326	808.677	2
0.101652	0.000172421	809.676	2
0.0966255	0.00012196	810.676	2
0.0916837	6.92109e-05	811.676	2
0.0866726	2.12365e-05	812.676	2
0.0816913	-2.25571e-05	813.676	2
0.0766993	-6.5519e-05	814.675	2
0.0717056	-0.000115145	815.675	2
0.0666636	-0.000164135	816.675	2
0.0616829	-0.000209058	817.675	2
0.0566748	-0.000243159	818.675	2
0.0516924	-0.000284487	819.674	2
0.0466428	-0.000326908	820.674	2
0.0416767	-0.000377085	821.674	2
0.0366816	-0.000422479	822.674	2
0.0316914	-0.000461183	823.674	2
0.0267073	-0.00049975	824.674	2
0.0217173	-0.0005429	825.673	2
0.0167204	-0.000600355	826.673	2
0.0117217	-0.000654369	827.673	2
0.00668428	-0.000700375	828.673	2
0.00168064	-0.000752372	829.673	2
-0.00332066	-0.000816626	830.672	2
-0.00830095	-0.000888639	831.672	2
-0.0133071	-0.000949046	832.672	2
-0.0183178	-0.00102297	833.672	2
-0.0233339	-0.00111396	834.672	2
-0.0283155	-0.00120968	835.671	2
-0.0332954	-0.00131318	836.671	2
-0.038272	-0.00142576	837.671	2
-0.0433003	-0.00156263	838.671	2
-0.048278	-0.00172365	839.671	2
-0.0532685	-0.00188764	840.67	2
-0.0582535	-0.00207854	841.67	2
-0.0632497	-0.00229839	842.67	2
-0.0682751	-0.00255159	843.67	2
-0.0732779	-0.00281786	844.67	2
-0.0782563	-0.00312006	845.669	2
-0.0832118	-0.0034646	846.669	2
-0.0882128	-0.00384303	847.669	2
-0.0932668	-0.00424364	848.669	2
-0.0982766	-0.00468257	849.669	2
-0.10326	-0.00516579	850.669	2
-0.108234	-0.00566352	851.668	2
-0.113241	-0.00618017	852.668	2
-0.118235	-0.00672524	853.668	2
-0.123207	-0.00728785	854.668	2
-0.128206	-0.00782741	855.668	2
-0.13315	-0.00833544	856.667	2
-0.138163	-0.00880212	857.667	2
-0.143182	-0.0092428	858.667	2
-0.148201	-0.00959832	859.667	2
-0.153181	-0.00986564	860.667	2
-0.158169	-0.01004	861.666	2
-0.163191	-0.0102197	862.666	2
-0.168383	-0.0102446	863.686	2
-0.173398	-0.0102859	864.686	2
-0.178347	-0.0103196	865.686	2
-0.183374	-0.0104008	866.685	2
-0.188358	-0.0104713	867.685	2
-0.193399	-0.0106428	868.685	2
-0.198381	-0.0107089	869.685	2
-0.203381	-0.0108808	870.685	2
-0.20838	-0.0110088	871.684	2
-0.213406	-0.0111359	872.684	2
-0.218384	-0.0112448	873.684	2
-0.2234	-0.011319	874.684	2
-0.228375	-0.0113974	875.684	2
-0.233358	-0.0115589	876.684	2
-0.23835	-0.0117312	877.683	2
-0.243356	-0.0119432	878.683	2
-0.248402	-0.0121023	879.683	2
-0.253386	-0.012182	880.683	2
-0.258371	-0.0122709	881.683	2
-0.263385	-0.0125599	882.682	2
-0.268388	-0.0126717	883.682	2
-0.27339	-0.0127148	884.682	2
-0.278414	-0.0129799	885.682	2
-0.283423	-0.013169	886.682	2
-0.288414	-0.0132698	887.681	2
-0.293379	-0.0134273	888.681	2
-0.298393	-0.0136922	889.681	2
-0.303401	-0.0138644	890.681	2
-0.308377	-0.0141239	891.681	2
-0.313356	-0.0141082	892.68	2
-0.318352	-0.0143887	893.68	2
-0.323357	-0.0146915	894.68	2
-0.328356	-0.0149674	895.68	2
-0.33334	-0.0151432	896.68	2
-0.338356	-0.0153631	897.68	2
-0.343355	-0.015562	898.679	2
-0.348328	-0.0158609	899.679	2
-0.353326	-0.0160354	900.679	2
-0.358326	-0.0162934	901.679	2
-0.363336	-0.0166975	902.679	2
-0.368331	-0.0168919	903.678	2
-0.373365	-0.016959	904.678	2
-0.378357	-0.0172957	905.678	2
-0.383359	-0.017669	906.678	2
-0.388343	-0.0179538	907.678	2
-0.393358	-0.0183567	908.677	2
-0.398364	-0.0187715	909.677	2
-0.403357	-0.0188758	910.677	2
-0.40837	-0.0191185	911.677	2
-0.413357	-0.0194385	912.677	2
-0.41835	-0.0198165	913.676	2
-0.423343	-0.0204831	914.676	2
-0.428327	-0.0206751	915.676	2
-0.433341	-0.0209619	916.676	2
-0.438322	-0.0213959	917.676	2
-0.443319	-0.0216859	918.675	2
-0.448297	-0.0220962	919.675	2
-0.453286	-0.0225112	920.675	2
-0.458331	-0.0229441	921.675	2
-0.463352	-0.0233236	922.675	2
-0.468336	-0.0238535	923.675	2
-0.473319	-0.024235	924.674	2
-0.478337	-0.0245947	925.674	2
-0.483337	-0.0249262	926.674	2
-0.488331	-0.025384	927.674	2
-0.493334	-0.0258872	928.674	2
-0.498314	-0.0263401	929.673	2
-0.503323	-0.0266014	930.673	2
-0.508298	-0.0268414	931.673	2
-0.513298	-0.0273559	932.673	2
-0.518289	-0.0275076	933.673	2
-0.523282	-0.0280916	934.672	2
-0.528301	-0.0282383	935.672	2
-0.533289	-0.0283335	936.672	2
-0.538293	-0.028591	937.672	2
-0.543278	-0.0287301	938.672	2
-0.54827	-0.0288436	939.671	2
-0.553292	-0.0288346	940.671	2
-0.558258	-0.0288953	941.671	2
-0.563262	-0.0289962	942.671	2
-0.568271	-0.0290233	943.671	2
-0.573271	-0.0291716	944.671	2
-0.578281	-0.0290553	945.67	2
-0.583269	-0.0290452	946.67	2
-0.588273	-0.0287495	947.67	2
-0.593261	-0.0287172	948.67	2
-0.598269	-0.028911	949.67	2
-0.603281	-0.0288941	950.669	2
-0.608268	-0.0287373	951.669	2
-0.613271	-0.028777	952.669	2
-0.618302	-0.0286618	953.669	2
-0.623271	-0.0285003	954.669	2
-0.628299	-0.0287972	955.668	2
-0.633294	-0.0286599	956.668	2
-0.6383	-0.0284942	957.668	2
-0.643292	-0.0283838	958.668	2
-0.648294	-0.0284597	959.668	2
-0.653275	-0.0285783	960.667	2
-0.658284	-0.0282678	961.667	2
-0.663261	-0.0281982	962.667	2
-0.668292	-0.0283248	963.667	2
-0.67328	-0.0282418	964.667	2
-0.678262	-0.0279544	965.666	2
-0.68328	-0.0279389	966.666	2
-0.688322	-0.0279385	967.666	2
-0.693281	-0.0279826	968.666	2
-0.698303	-0.0279173	969.666	2
-0.703291	-0.0278102	970.666	2
-0.708313	-0.0277687	971.665	2
-0.713311	-0.0276446	972.665	2
-0.718287	-0.0276043	973.665	2
-0.723271	-0.0274927	974.665	2
-0.728285	-0.0274249	975.665	2
-0.733297	-0.0273054	976.664	2
-0.738264	-0.0271955	977.664	2
-0.743286	-0.0272536	978.664	2
-0.748274	-0.0273477	979.664	2
-0.753244	-0.0273089	980.664	2
-0.758262	-0.0272565	981.663	2
-0.76326	-0.0272498	982.663	2
-0.768244	-0.0272225	983.663	2
-0.773251	-0.0273808	984.663	2
-0.778229	-0.0276216	985.663	2
-0.783257	-0.0277152	986.662	2
-0.788251	-0.0279694	987.662	2
-0.793289	-0.0280515	988.662	2
-0.798232	-0.0280603	989.662	2
-0.803277	-0.028485	990.662	2
-0.808292	-0.0289075	991.661	2
-0.813303	-0.0295613	992.661	2
-0.818298	-0.0298694	993.661	2
-0.823312	-0.0300595	994.661	2
-0.828272	-0.0304972	995.661	2
-0.833288	-0.0309484	996.661	2
-0.838287	-0.0312274	997.66	2
-0.843283	-0.0317518	998.66	2
-0.848278	-0.0322665	999.66	2
-0.853272	-0.0327514	1000.66	2
-0.858282	-0.0331478	1001.66	2
-0.863235	-0.0332344	1002.66	2
-0.868259	-0.0338107	1003.66	2
-0.873254	-0.0340827	1004.66	2
-0.87821	-0.03443	1005.66	2
-0.883254	-0.034973	1006.66	2
-0.888253	-0.0355387	1007.66	2
-0.893256	-0.0359635	1008.66	2
-0.898242	-0.0363618	1009.66	2
-0.90324	-0.0368258	1010.66	2
-0.908258	-0.0376259	1011.66	2
-0.913282	-0.0383417	1012.66	2
-0.91825	-0.0388412	1013.66	2
-0.923264	-0.0394989	1014.66	2
-0.928247	-0.0406081	1015.66	2
-0.933238	-0.0416244	1016.66	2
-0.93825	-0.0424667	1017.66	2
-0.943248	-0.0434299	1018.66	2
-0.948217	-0.0444626	1019.66	2
-0.953178	-0.0459261	1020.66	2
-0.95819	-0.0471755	1021.66	2
-0.963208	-0.0485817	1022.66	2
-0.968201	-0.0501158	1023.66	2
-0.973206	-0.0518865	1024.66	2
-0.978194	-0.0535653	1025.65	2
-0.983191	-0.05523	1026.65	2
-0.988176	-0.0571221	1027.65	2
-0.993174	-0.0587206	1028.65	2
-0.998179	-0.0607309	1029.65	2
-1.00318	-0.0624661	1030.65	2
-1.00817	-0.0640372	1031.65	2
-1.01318	-0.0658033	1032.65	2
-1.01816	-0.0672068	1033.65	2
-1.02317	-0.0684006	1034.65	2
-1.02816	-0.0694522	1035.65	2
-1.03316	-0.0698663	1036.65	2
-1.03818	-0.0702957	1037.65	2
-1.04317	-0.0696831	1038.65	2
-1.04813	-0.0690792	1039.65	2
-1.05312	-0.0681386	1040.65	2
-1.05812	-0.0669599	1041.65	2
-1.06311	-0.0653956	1042.65	2
-1.06814	-0.0633954	1043.65	2
-1.07311	-0.0613294	1044.65	2
-1.07812	-0.0592622	1045.65	2
-1.08312	-0.0570288	1046.65	2
-1.08811	-0.0547705	1047.65	2
-1.09315	-0.0525089	1048.65	2
-1.09814	-0.0503827	1049.65	2
-1.10315	-0.0482531	1050.65	2
-1.10818	-0.046211	1051.65	2
-1.11316	-0.0442434	1052.65	2
-1.11818	-0.0424596	1053.65	2
-1.12317	-0.0408051	1054.65	2
-1.12817	-0.0392305	1055.65	2
-1.13315	-0.0377635	1056.65	2
-1.13816	-0.0364149	1057.65	2
-1.14316	-0.0352069	1058.65	2
-1.14813	-0.0340662	1059.65	2
-1.15313	-0.0330054	1060.65	2
-1.15813	-0.0320157	1061.65	2
-1.16314	-0.0311215	1062.65	2
-1.16815	-0.0302993	1063.65	2
-1.17316	-0.0295014	1064.65	2
-1.1782	-0.0287585	1065.65	2
-1.18316	-0.028055	1066.65	2
-1.18814	-0.0273969	1067.65	2
-1.19312	-0.0267328	1068.65	2
-1.19813	-0.0260904	1069.65	2
-1.20315	-0.0254877	1070.65	2
-1.20813	-0.0249276	1071.65	2
-1.21318	-0.0244075	1072.65	2
-1.21819	-0.0239045	1073.65	2
-1.22317	-0.0234342	1074.65	2
-1.22814	-0.0230078	1075.65	2
-1.23316	-0.0226389	1076.65	2
-1.23815	-0.0223071	1077.64	2
-1.24312	-0.0219856	1078.64	2
-1.24812	-0.0216823	1079.64	2
-1.25311	-0.0214289	1080.64	2
-1.25812	-0.0212095	1081.64	2
-1.2631	-0.0209702	1082.64	2
-1.26813	-0.0207893	1083.64	2
-1.2731	-0.0206097	1084.64	2
-1.27812	-0.0204337	1085.64	2
-1.28315	-0.0202912	1086.64	2
-1.28814	-0.0201604	1087.64	2
-1.29312	-0.0200443	1088.64	2
-1.29815	-0.0199143	1089.64	2
-1.30315	-0.0197975	1090.64	2
-1.30812	-0.0197143	1091.64	2
-1.31314	-0.0196062	1092.64	2
-1.31812	-0.0195318	1093.64	2
-1.32314	-0.0194514	1094.64	2
-1.32812	-0.0193736	1095.64	2
-1.33314	-0.0193065	1096.64	2
-1.33813	-0.0192577	1097.64	2
-1.33714	-0.0183908	1098.46	2
-1.33213	-0.0175403	1099.46	2
-1.32713	-0.0169036	1100.46	2
-1.32215	-0.0164055	1101.46	2
-1.31713	-0.0159903	1102.46	2
-1.31211	-0.0156045	1103.46	2
-1.30711	-0.0152519	1104.46	2
-1.30212	-0.0149485	1105.46	2
-1.29709	-0.0146587	1106.46	2
-1.29207	-0.0143845	1107.46	2
-1.28708	-0.0141166	1108.46	2
-1.2821	-0.0138811	1109.46	2
-1.27713	-0.0136542	1110.46	2
-1.27213	-0.0134315	1111.46	2
-1.26715	-0.0132168	1112.46	2
-1.26218	-0.0130191	1113.46	2
-1.25715	-0.012831	1114.46	2
-1.25213	-0.0126459	1115.46	2
-1.24714	-0.012459	1116.46	2
-1.24213	-0.0122578	1117.46	2
-1.23712	-0.0120707	1118.46	2
-1.23213	-0.0118937	1119.46	2
-1.22715	-0.0117165	1120.46	2
-1.22216	-0.0115294	1121.46	2
-1.21721	-0.0113429	1122.46	2
-1.21221	-0.0111645	1123.46	2
-1.20718	-0.010964	1124.46	2
-1.20216	-0.0107512	1125.46	2
-1.19716	-0.0105305	1126.46	2
-1.19217	-0.0103166	1127.46	2
-1.18714	-0.0100781	1128.46	2
-1.18216	-0.00981432	1129.46	2
-1.17717	-0.00953315	1130.46	2
-1.17219	-0.00923227	1131.46	2
-1.1672	-0.00892108	1132.45	2
-1.1622	-0.00857557	1133.45	2
-1.15722	-0.0081717	1134.45	2
-1.1522	-0.00774758	1135.45	2
-1.1472	-0.00728138	1136.45	2
-1.1422	-0.00673676	1137.45	2
-1.13715	-0.00613091	1138.45	2
-1.13217	-0.00544921	1139.45	2
-1.12719	-0.00467781	1140.45	2
-1.12205	-0.00384317	1141.47	2
-1.11707	-0.00289023	1142.47	2
-1.11208	-0.00175764	1143.47	2
-1.1071	-0.00046279	1144.47	2
-1.10211	0.000961677	1145.47	2
-1.09712	0.00260638	1146.47	2
-1.09217	0.00450804	1147.47	2
-1.08713	0.00671788	1148.47	2
-1.08215	0.00918147	1149.47	2
-1.07697	0.0121381	1150.49	2
-1.07198	0.0153357	1151.49	2
-1.06701	0.0189785	1152.49	2
-1.06201	0.0231793	1153.49	2
-1.05706	0.0276307	1154.49	2
-1.05204	0.0326311	1155.49	2
-1.04704	0.0381097	1156.49	2
-1.04205	0.0439668	1157.49	2
-1.03705	0.0499684	1158.49	2
-1.03205	0.0557578	1159.49	2
-1.02705	0.0608162	1160.49	2
-1.02203	0.0644554	1161.49	2
-1.01706	0.0655494	1162.49	2
-1.01205	0.0639428	1163.49	2
-1.00701	0.0595339	1164.49	2
-1.00203	0.0535967	1165.49	2
-0.997047	0.0479512	1166.49	2
-0.992044	0.0435493	1167.49	2
-0.98704	0.040298	1168.49	2
-0.982042	0.0379199	1169.49	2
-0.977044	0.0355537	1170.49	2
-0.972042	0.0336194	1171.49	2
-0.967032	0.0318942	1172.49	2
-0.962078	0.0303481	1173.49	2
-0.957042	0.0285507	1174.49	2
-0.952023	0.0271975	1175.49	2
-0.947039	0.0258084	1176.49	2
-0.942067	0.0244154	1177.49	2
-0.937053	0.0233285	1178.49	2
-0.932054	0.0224665	1179.49	2
-0.927043	0.0215761	1180.49	2
-0.922058	0.0205229	1181.49	2
-0.917073	0.0197438	1182.49	2
-0.912059	0.0191037	1183.49	2
-0.907088	0.018616	1184.49	2
-0.902031	0.0181377	1185.48	2
-0.897058	0.0175218	1186.48	2
-0.892029	0.0171584	1187.48	2
-0.887053	0.0169973	1188.48	2
-0.882054	0.0165059	1189.48	2
-0.877049	0.016325	1190.48	2
-0.872058	0.016284	1191.48	2
-0.867058	0.016187	1192.48	2
-0.862085	0.0160021	1193.48	2
-0.857065	0.0159396	1194.48	2
-0.852043	0.0160126	1195.48	2
-0.847043	0.0161227	1196.48	2
-0.84206	0.0160867	1197.48	2
-0.837065	0.0160542	1198.48	2
-0.832057	0.0164568	1199.48	2
-0.827087	0.0163904	1200.48	2
-0.822083	0.0163154	1201.48	2
-0.817028	0.0165166	1202.48	2
-0.812055	0.0167179	1203.48	2
-0.807043	0.0171113	1204.48	2
-0.802072	0.0169316	1205.48	2
-0.79703	0.0172842	1206.48	2
-0.792033	0.0175276	1207.48	2
-0.787061	0.0174505	1208.48	2
-0.782076	0.0175607	1209.48	2
-0.777044	0.0176587	1210.48	2
-0.772056	0.0178438	1211.48	2
-0.767068	0.0182997	1212.48	2
-0.762061	0.0182987	1213.48	2
-0.757064	0.0183464	1214.48	2
-0.752065	0.0186766	1215.48	2
-0.747022	0.0188058	1216.48	2
-0.742016	0.0188873	1217.48	2
-0.737058	0.0188893	1218.48	2
-0.732069	0.0191683	1219.48	2
-0.727049	0.0193342	1220.48	2
-0.722073	0.0195281	1221.48	2
-0.717088	0.0197993	1222.48	2
-0.712058	0.0199838	1223.48	2
-0.707086	0.0202996	1224.48	2
-0.702087	0.0203299	1225.48	2
-0.697088	0.0204184	1226.48	2
-0.692092	0.0206757	1227.48	2
-0.687088	0.0211637	1228.48	2
-0.68209	0.0214613	1229.48	2
-0.677046	0.0218707	1230.48	2
-0.672078	0.0221037	1231.48	2
-0.667067	0.0224896	1232.48	2
-0.662067	0.0228656	1233.48	2
-0.6571	0.0229667	1234.48	2
-0.652117	0.0235707	1235.48	2
-0.647081	0.0239125	1236.48	2
-0.642107	0.0240812	1237.47	2
-0.637095	0.0243873	1238.47	2
-0.632116	0.0247919	1239.47	2
-0.627105	0.0250835	1240.47	2
-0.622101	0.0249471	1241.47	2
-0.617083	0.024971	1242.47	2
-0.612073	0.0248533	1243.47	2
-0.607093	0.0248628	1244.47	2
-0.602073	0.0252619	1245.47	2
-0.597084	0.0249112	1246.47	2
-0.592097	0.0248058	1247.47	2
-0.587118	0.0248246	1248.47	2
-0.582114	0.0250418	1249.47	2
-0.577136	0.0252198	1250.47	2
-0.572115	0.024947	1251.47	2
-0.567091	0.025243	1252.47	2
-0.562099	0.0255955	1253.47	2
-0.557092	0.025663	1254.47	2
-0.552125	0.0255899	1255.47	2
-0.5471	0.0260935	1256.47	2
-0.5421	0.0262601	1257.47	2
-0.537133	0.0263456	1258.47	2
-0.532121	0.0264235	1259.47	2
-0.527121	0.0265951	1260.47	2
-0.522136	0.0269174	1261.47	2
-0.517142	0.0267267	1262.47	2
-0.512132	0.0268041	1263.47	2
-0.507127	0.0267997	1264.47	2
-0.502143	0.0267571	1265.47	2
-0.497133	0.0264761	1266.47	2
-0.492119	0.0263015	1267.47	2
-0.48714	0.0262799	1268.47	2
-0.482139	0.0260397	1269.47	2
-0.47714	0.0257136	1270.47	2
-0.472135	0.0253733	1271.47	2
-0.467114	0.0250371	1272.47	2
-0.462124	0.0247816	1273.47	2
-0.45714	0.0244137	1274.47	2
-0.452114	0.024013	1275.47	2
-0.447097	0.0237733	1276.47	2
-0.442102	0.0237193	1277.47	2
-0.437113	0.023531	1278.47	2
-0.432102	0.0231875	1279.47	2
-0.427139	0.0229504	1280.47	2
-0.4221	0.0228318	1281.47	2
-0.417143	0.0227916	1282.47	2
-0.412133	0.0223002	1283.47	2
-0.40713	0.0223833	1284.47	2
-0.402147	0.0224055	1285.47	2
-0.397135	0.0222518	1286.47	2
-0.392143	0.0220448	1287.47	2
-0.387111	0.0221537	1288.47	2
-0.382135	0.0220795	1289.46	2
-0.377139	0.0218308	1290.46	2
-0.372156	0.0217771	1291.46	2
-0.367136	0.021589	1292.46	2
-0.362131	0.0215568	1293.46	2
-0.357142	0.0213836	1294.46	2
-0.352141	0.0210905	1295.46	2
-0.347166	0.0208433	1296.46	2
-0.342126	0.0207873	1297.46	2
-0.337161	0.0203888	1298.46	2
-0.332138	0.0201245	1299.46	2
-0.327131	0.019848	1300.46	2
-0.322145	0.0197206	1301.46	2
-0.31715	0.0195429	1302.46	2
-0.31216	0.0190662	1303.46	2
-0.307165	0.0187461	1304.46	2
-0.302163	0.0186555	1305.46	2
-0.297187	0.0183599	1306.46	2
-0.292165	0.0180664	1307.46	2
-0.287177	0.0177472	1308.46	2
-0.28218	0.0178588	1309.46	2
-0.277163	0.0177044	1310.46	2
-0.272185	0.0173909	1311.46	2
-0.267161	0.0172582	1312.46	2
-0.262159	0.0171741	1313.46	2
-0.257167	0.0171743	1314.46	2
-0.252169	0.0169899	1315.46	2
-0.247177	0.0168082	1316.46	2
-0.242184	0.0167845	1317.46	2
-0.237188	0.0168679	1318.46	2
-0.232204	0.0167759	1319.46	2
-0.227209	0.0166582	1320.46	2
-0.22219	0.0165778	1321.46	2
-0.217195	0.0166681	1322.46	2
-0.212207	0.0166375	1323.46	2
-0.207216	0.0164722	1324.46	2
-0.202176	0.0164942	1325.46	2
-0.197181	0.0164298	1326.46	2
-0.192166	0.0164813	1327.46	2
-0.187158	0.0164466	1328.46	2
-0.182177	0.0163469	1329.46	2
-0.177196	0.0161903	1330.46	2
-0.172201	0.0161924	1331.46	2
-0.167201	0.0162148	1332.46	2
-0.162194	0.0160129	1333.46	2
-0.157179	0.015874	1334.46	2
-0.152212	0.0157658	1335.46	2
-0.147214	0.0156725	1336.46	2
-0.142225	0.0154916	1337.46	2
-0.137184	0.0152935	1338.46	2
-0.132198	0.0150469	1339.46	2
-0.127177	0.0148686	1340.46	2
-0.122189	0.0146523	1341.45	2
-0.117177	0.0143965	1342.45	2
-0.112191	0.01412	1343.45	2
-0.108871	0.0139128	1344.11	3
-0.103884	0.0136079	1345.11	3
-0.0988657	0.0133194	1346.11	3
-0.0938568	0.0129983	1347.11	3
-0.088865	0.0126911	1348.11	3
-0.0838747	0.012348	1349.11	3
-0.0788875	0.0120037	1350.11	3
-0.073884	0.0116573	1351.11	3
-0.0688938	0.0113209	1352.11	3
-0.0638869	0.0109978	1353.11	3
-0.0589156	0.0106484	1354.11	3
-0.0539045	0.0103223	1355.11	3
-0.0488941	0.0100139	1356.11	3
-0.0439057	0.00971897	1357.11	3
-0.0389146	0.00943964	1358.11	3
-0.0339069	0.00917989	1359.11	3
-0.0289067	0.00892463	1360.11	3
-0.0239177	0.00869555	1361.11	3
-0.0188984	0.00847634	1362.11	3
-0.0139085	0.00827535	1363.11	3
-0.00891019	0.00809753	1364.11	3
-0.00395644	0.00793105	1365.11	3
0.00104635	0.00777939	1366.11	3
0.00603623	0.00763855	1367.11	3
0.01101	0.00750706	1368.11	3
0.0160152	0.0073903	1369.11	3
0.0210129	0.00728989	1370.11	3
0.0260127	0.00720354	1371.11	3
0.0310058	0.00712044	1372.11	3
0.0360257	0.00704856	1373.11	3
0.0410657	0.0069864	1374.11	3
0.0460661	0.00692547	1375.11	3
0.0510717	0.00687227	1376.11	3
0.0560772	0.00683021	1377.11	3
0.0610696	0.00679315	1378.11	3
0.0660898	0.006753	1379.11	3
0.071099	0.00671985	1380.11	3
0.0761087	0.00668936	1381.11	3
0.0810895	0.00666037	1382.11	3
0.0860702	0.00664569	1383.11	3
0.0910742	0.00662705	1384.11	3
0.0961008	0.00660437	1385.11	3
0.101118	0.00658359	1386.11	3
0.106085	0.00656703	1387.11	3
0.111073	0.00655505	1388.11	3
0.116096	0.00653382	1389.11	3
0.121065	0.00652448	1390.11	3
0.126056	0.00651007	1391.11	3
0.131034	0.00649185	1392.11	3
0.136019	0.00647291	1393.11	3
0.141033	0.00646343	1394.1	3
0.146014	0.00644735	1395.1	3
0.151015	0.00642807	1396.1	3
0.156022	0.00640654	1397.1	3
0.157994	0.00640649	1397.5	3