File: test_trajectories/cyclic_voltammetry/biologic3.txt
Ewe/V	<I>/mA	cycle number	time/s
0.0310427	-0.00619543	1	624.609
0.0289876	-0.00551068	1	624.614
0.0249917	-0.00478411	1	624.624
0.0209897	-0.00444468	1	624.634
0.0169954	-0.00423635	1	624.644
0.0129904	-0.00411484	1	624.654
0.00899324	-0.00402581	1	624.664
0.00499544	-0.00396413	1	624.674
0.000994961	-0.00391941	1	624.684
-0.00301411	-0.0038913	1	624.694
-0.01298	-0.00382414	1	624.719
-0.0229859	-0.00378296	1	624.744
-0.026994	-0.00378744	1	624.754
-0.0309974	-0.00377875	1	624.764
-0.0349918	-0.00376886	1	624.774
-0.0389881	-0.00377945	1	624.784
-0.0429919	-0.00376756	1	624.794
-0.0469886	-0.00377135	1	624.804
-0.0509824	-0.00377561	1	624.814
-0.0549925	-0.00377424	1	624.824
-0.0589817	-0.00377463	1	624.834
-0.0629845	-0.00378191	1	624.844
-0.0669853	-0.00378199	1	624.854
-0.0709839	-0.00378346	1	624.864
-0.0749827	-0.00378861	1	624.874
-0.0789852	-0.00379568	1	624.884
-0.0829857	-0.00379678	1	624.894
-0.0869876	-0.00380291	1	624.904
-0.09099	-0.00380444	1	624.914
-0.0949853	-0.00380675	1	624.924
-0.0989911	-0.00381339	1	624.934
-0.103001	-0.00381764	1	624.944
-0.106989	-0.00381966	1	624.954
-0.110999	-0.00381981	1	624.964
-0.115004	-0.0038236	1	624.974
-0.118991	-0.00382576	1	624.984
-0.123001	-0.00382996	1	624.994
-0.126997	-0.00383238	1	625.004
-0.13101	-0.00383829	1	625.014
-0.134993	-0.00383954	1	625.024
-0.138997	-0.00384215	1	625.034
-0.143	-0.00384501	1	625.044
-0.146993	-0.00384629	1	625.054
-0.151008	-0.00385475	1	625.064
-0.154998	-0.00385624	1	625.074
-0.158993	-0.00385682	1	625.084
-0.162999	-0.00386376	1	625.094
-0.166992	-0.00387037	1	625.104
-0.170984	-0.00387594	1	625.114
-0.174981	-0.00388177	1	625.124
-0.178982	-0.00388849	1	625.134
-0.182993	-0.00389758	1	625.144
-0.186993	-0.00390345	1	625.154
-0.19099	-0.00390666	1	625.164
-0.194993	-0.00391857	1	625.174
-0.198384	-0.00392177	1	625.183
-0.199849	-0.00394264	1	625.186
-0.200052	-0.00393706	1	625.186
-0.200101	-0.00391287	2	625.187
-0.198186	0.00078069	2	625.192
-0.193778	0.00282639	2	625.202
-0.189786	0.00290773	2	625.212
-0.185769	0.00299156	2	625.222
-0.181784	0.00304845	2	625.232
-0.171754	0.00311901	2	625.257
-0.161769	0.00319597	2	625.282
-0.15777	0.00321834	2	625.292
-0.153771	0.00323051	2	625.302
-0.149772	0.00324954	2	625.312
-0.145761	0.00326303	2	625.322
-0.141761	0.00327146	2	625.332
-0.137762	0.00328073	2	625.342
-0.133772	0.00328833	2	625.352
-0.129786	0.0033038	2	625.362
-0.119767	0.00331827	2	625.387
-0.10979	0.00334884	2	625.412
-0.10579	0.00334985	2	625.422
-0.101788	0.00335342	2	625.432
-0.0977744	0.00336324	2	625.442
-0.093786	0.00335881	2	625.452
-0.0897825	0.00336888	2	625.462
-0.0857832	0.00336772	2	625.472
-0.0817884	0.00337008	2	625.482
-0.0777811	0.00337346	2	625.492
-0.0737865	0.00337702	2	625.502
-0.0697834	0.00337249	2	625.512
-0.0657844	0.00337377	2	625.522
-0.0617829	0.00337901	2	625.532
-0.0577961	0.00337837	2	625.542
-0.0537902	0.00337956	2	625.552
-0.0497898	0.00338117	2	625.562
-0.045792	0.00337872	2	625.572
-0.0417947	0.00337928	2	625.582
-0.0377978	0.00337892	2	625.592
-0.0337924	0.00337688	2	625.602
-0.029796	0.0033764	2	625.612
-0.0257904	0.00338925	2	625.622
-0.0217864	0.0033762	2	625.632
-0.0177893	0.00337174	2	625.642
-0.0137892	0.00337368	2	625.652
-0.00977255	0.00337223	2	625.662
-0.00578676	0.00337356	2	625.672
-0.00177987	0.00337801	2	625.682
0.00222494	0.00337809	2	625.692
0.00622648	0.00336959	2	625.702
0.0102181	0.0033671	2	625.712
0.0142244	0.00336924	2	625.722
0.0182221	0.00336965	2	625.732
0.0222238	0.00336786	2	625.742
0.0262286	0.00337095	2	625.752
0.0302374	0.00337519	2	625.762
0.0342321	0.00336372	2	625.772
0.0382358	0.00336709	2	625.782
0.0422318	0.00336135	2	625.792
0.0462202	0.00336182	2	625.802
0.0502286	0.00336486	2	625.812
0.0542336	0.00336779	2	625.822
0.0582346	0.00335833	2	625.832
0.0622292	0.00336065	2	625.842
0.0662322	0.00336266	2	625.852
0.0702313	0.0033567	2	625.862
0.0742188	0.00335917	2	625.872
0.0782253	0.00336054	2	625.882
0.0822284	0.00335585	2	625.892
0.0862302	0.00335718	2	625.902
0.0902338	0.00335523	2	625.912
0.0942349	0.00335005	2	625.922
0.0982309	0.00334985	2	625.932
0.102229	0.00335199	2	625.942
0.106235	0.00334794	2	625.952
0.11023	0.00334934	2	625.962
0.114231	0.00334389	2	625.972
0.118231	0.00334638	2	625.982
0.122227	0.00334144	2	625.992
0.126221	0.00334297	2	626.002
0.130236	0.00334709	2	626.012
0.134225	0.00333397	2	626.022
0.138226	0.00333451	2	626.032
0.142232	0.0033435	2	626.042
0.146235	0.00333318	2	626.052
0.150232	0.00333212	2	626.062
0.154231	0.00333932	2	626.072
0.158233	0.00333521	2	626.082
0.162235	0.0033306	2	626.092
0.166223	0.00332642	2	626.102
0.170228	0.00333244	2	626.112
0.174231	0.00332997	2	626.122
0.178229	0.00333155	2	626.132
0.182235	0.00332541	2	626.142
0.186231	0.00332448	2	626.152
0.190229	0.00332409	2	626.162
0.194235	0.00332198	2	626.172
0.198113	0.00331936	2	626.182
0.200014	0.00331188	2	626.186
0.200083	0.00330764	2	626.187
0.200144	0.00327997	2	626.187
0.198394	-0.000935273	2	626.192
0.188047	-0.00262405	2	626.217
0.178021	-0.00279552	2	626.242
0.174028	-0.0028259	2	626.252
0.170019	-0.00285624	2	626.262
0.166019	-0.00288318	2	626.272
0.162032	-0.00291181	2	626.282
0.158027	-0.00293236	2	626.292
0.154022	-0.0029552	2	626.302
0.150027	-0.00296892	2	626.312
0.146024	-0.00299142	2	626.322
0.136082	-0.00301231	2	626.347
0.126059	-0.0030602	2	626.372
0.122048	-0.00306505	2	626.382
0.118052	-0.00307977	2	626.392
0.114058	-0.003098	2	626.402
0.110049	-0.00310442	2	626.412
0.106052	-0.00311859	2	626.422
0.102048	-0.00313583	2	626.432
0.0980534	-0.00314297	2	626.442
0.09405	-0.00315383	2	626.452
0.0900476	-0.00316764	2	626.462
0.08605	-0.00317573	2	626.472
0.0820494	-0.00319066	2	626.482
0.0780572	-0.00320355	2	626.492
0.0740468	-0.00321958	2	626.502
0.0700555	-0.00322532	2	626.512
0.0660478	-0.00323762	2	626.522
0.0620482	-0.00324857	2	626.532
0.0580633	-0.00325907	2	626.542
0.0540568	-0.00327945	2	626.552
0.0500556	-0.0032897	2	626.562
0.0460464	-0.00329518	2	626.572
0.0420468	-0.00330936	2	626.582
0.0380481	-0.00332176	2	626.592
0.0340487	-0.00332948	2	626.602
0.0300624	-0.00334263	2	626.612
0.0260545	-0.00336587	2	626.622
0.0220448	-0.00336577	2	626.632
0.0180379	-0.00337887	2	626.642
0.0140351	-0.00338561	2	626.652
0.0100407	-0.0033934	2	626.662
0.0060414	-0.00340925	2	626.672
0.00203814	-0.0034159	2	626.682
-0.0019602	-0.00343001	2	626.692
-0.0059679	-0.00343592	2	626.702
-0.00995381	-0.00344254	2	626.712
-0.013967	-0.0034525	2	626.722
-0.0179582	-0.00346357	2	626.732
-0.0219669	-0.00347336	2	626.742
-0.0259624	-0.00347572	2	626.752
-0.0299685	-0.00349611	2	626.762
-0.0339776	-0.00349969	2	626.772
-0.037972	-0.00350413	2	626.782
-0.0419724	-0.00351392	2	626.792
-0.0459702	-0.00352058	2	626.802
-0.0499661	-0.00352932	2	626.812
-0.053973	-0.003538	2	626.822
-0.0579562	-0.00353985	2	626.832
-0.0619583	-0.00355299	2	626.842
-0.0659663	-0.00355611	2	626.852
-0.0699582	-0.00356253	2	626.862
-0.0739696	-0.00357289	2	626.872
-0.0779667	-0.00357837	2	626.882
-0.0819703	-0.00358614	2	626.892
-0.0859618	-0.00358686	2	626.902
-0.0899647	-0.00359791	2	626.912
-0.0939743	-0.00359814	2	626.922
-0.0979642	-0.00360516	2	626.932
-0.101972	-0.00361066	2	626.942
-0.105971	-0.00361696	2	626.952
-0.109968	-0.00362	2	626.962
-0.113971	-0.00362419	2	626.972
-0.117963	-0.00363296	2	626.982
-0.121981	-0.00363342	2	626.992
-0.125966	-0.00363827	2	627.002
-0.129969	-0.00365242	2	627.012
-0.133964	-0.00365484	2	627.022
-0.137964	-0.00365616	2	627.032
-0.141967	-0.0036664	2	627.042
-0.145958	-0.00366959	2	627.052
-0.149971	-0.0036791	2	627.062
-0.153967	-0.00368953	2	627.072
-0.157975	-0.00369955	2	627.082
-0.161972	-0.00369876	2	627.092
-0.165964	-0.00370891	2	627.102
-0.169957	-0.00372145	2	627.112
-0.173956	-0.00373336	2	627.122
-0.177953	-0.00373823	2	627.132
-0.181964	-0.00375591	2	627.142
-0.185955	-0.00376081	2	627.152
-0.189964	-0.00377472	2	627.162
-0.19396	-0.00378702	2	627.172
-0.197874	-0.00379581	2	627.182
-0.199849	-0.00381693	2	627.187
-0.19999	-0.00380756	2	627.187
-0.200055	-0.00378402	3	627.187
-0.198184	0.000899159	3	627.192
-0.193778	0.00291473	3	627.202
-0.189784	0.00298737	3	627.212
-0.185781	0.00305278	3	627.222
-0.181786	0.0031049	3	627.232
-0.177781	0.00315153	3	627.242
-0.173773	0.00317546	3	627.252
-0.163766	0.00321405	3	627.277
-0.153782	0.00326211	3	627.302
-0.149785	0.00327324	3	627.312
-0.145776	0.00328585	3	627.322
-0.141783	0.0032929	3	627.332
-0.137773	0.00330127	3	627.342
-0.133783	0.00330631	3	627.352
-0.129783	0.00332195	3	627.362
-0.125779	0.0033203	3	627.372
-0.121781	0.00333076	3	627.382
-0.111789	0.00333777	3	627.407
-0.101811	0.00336423	3	627.432
-0.0977983	0.00336538	3	627.442
-0.0938106	0.00336711	3	627.452
-0.0898015	0.00337038	3	627.462
-0.0858036	0.00337013	3	627.472
-0.0818048	0.00337452	3	627.482
-0.0777914	0.00337569	3	627.492
-0.0737893	0.00337969	3	627.502
-0.0697882	0.00338243	3	627.512
-0.0657979	0.00337348	3	627.522
-0.0617979	0.00338123	3	627.532
-0.0577802	0.00338087	3	627.542
-0.0537945	0.00337735	3	627.552
-0.0497877	0.00338103	3	627.562
-0.0457902	0.00337774	3	627.572
-0.0417931	0.00338052	3	627.582
-0.0377993	0.00337475	3	627.592
-0.033799	0.00337867	3	627.602
-0.0297984	0.00337399	3	627.612
-0.0257923	0.00338285	3	627.622
-0.0217906	0.00336795	3	627.632
-0.017794	0.00337462	3	627.642
-0.0137923	0.00337081	3	627.652
-0.00979201	0.00337103	3	627.662
-0.00579597	0.0033728	3	627.672
-0.00178611	0.00336792	3	627.682
0.00221204	0.00336959	3	627.692
0.0062126	0.00336696	3	627.702
0.0102155	0.00336768	3	627.712
0.0142109	0.0033625	3	627.722
0.0182164	0.00336381	3	627.732
0.022216	0.00336075	3	627.742
0.0262136	0.0033632	3	627.752
0.0302227	0.00337127	3	627.762
0.0342259	0.00336115	3	627.772
0.038232	0.00336072	3	627.782
0.0422243	0.00335864	3	627.792
0.0462308	0.00335621	3	627.802
0.0502217	0.00335738	3	627.812
0.0542237	0.0033579	3	627.822
0.058232	0.00336051	3	627.832
0.0622239	0.00335164	3	627.842
0.0662216	0.0033594	3	627.852
0.0702255	0.00335268	3	627.862
0.07423	0.00335336	3	627.872
0.0782278	0.00335855	3	627.882
0.0822325	0.00334994	3	627.892
0.0862211	0.00334768	3	627.902
0.0902274	0.00334914	3	627.912
0.0942196	0.00335088	3	627.922
0.0982401	0.00334656	3	627.932
0.102223	0.00334394	3	627.942
0.106223	0.00334581	3	627.952
0.110225	0.00334071	3	627.962
0.114221	0.00334301	3	627.972
0.118226	0.00334159	3	627.982
0.122228	0.0033445	3	627.992
0.126228	0.00333766	3	628.002
0.130241	0.00334168	3	628.012
0.134225	0.00333256	3	628.022
0.138232	0.00333515	3	628.032
0.142221	0.00333471	3	628.042
0.146219	0.00333336	3	628.052
0.150218	0.00333738	3	628.062
0.154229	0.00333724	3	628.072
0.158225	0.00333224	3	628.082
0.162223	0.00333303	3	628.092
0.16623	0.00333149	3	628.102
0.170222	0.00333048	3	628.112
0.174217	0.00333172	3	628.122
0.178229	0.00333301	3	628.132
0.182223	0.00333001	3	628.142
0.186229	0.00333033	3	628.152
0.190221	0.00333017	3	628.162
0.19422	0.00332349	3	628.172
0.198102	0.00332485	3	628.182
0.199984	0.00331261	3	628.187
0.200117	0.00330986	3	628.187
0.200137	0.00328681	3	628.187
0.198389	-0.000927324	3	628.192
0.194029	-0.00254811	3	628.202
0.190039	-0.00261368	3	628.212
0.180035	-0.00272391	3	628.237
0.170021	-0.00284588	3	628.262
0.166027	-0.00287528	3	628.272
0.162025	-0.00289882	3	628.282
0.158022	-0.00292384	3	628.292
0.154019	-0.00294679	3	628.302
0.150017	-0.00295954	3	628.312
0.146017	-0.00297995	3	628.322
0.142034	-0.00299468	3	628.332
0.138033	-0.00301034	3	628.342
0.128037	-0.00303334	3	628.367
0.118045	-0.00307531	3	628.392
0.114034	-0.0030842	3	628.402
0.11006	-0.00309429	3	628.412
0.106054	-0.00311231	3	628.422
0.102054	-0.00312688	3	628.432
0.0980568	-0.0031317	3	628.442
0.0940482	-0.00314915	3	628.452
0.0900474	-0.00315652	3	628.462
0.0860513	-0.00316918	3	628.472
0.0820567	-0.00318188	3	628.482
0.0780601	-0.00319302	3	628.492
0.0740409	-0.00321228	3	628.502
0.0700503	-0.00321478	3	628.512
0.0660481	-0.0032315	3	628.522
0.0620571	-0.00323701	3	628.532
0.058055	-0.00325616	3	628.542
0.0540488	-0.00326371	3	628.552
0.0500494	-0.00327384	3	628.562
0.0460584	-0.00329157	3	628.572
0.0420498	-0.00329886	3	628.582
0.0380447	-0.00331163	3	628.592
0.0340461	-0.00331997	3	628.602
0.0300537	-0.00333395	3	628.612
0.0260399	-0.00335169	3	628.622
0.0220537	-0.00335087	3	628.632
0.0180551	-0.00336446	3	628.642
0.0140476	-0.00337711	3	628.652
0.0100504	-0.00338367	3	628.662
0.0060405	-0.00339586	3	628.672
0.0020447	-0.00340481	3	628.682
-0.00196468	-0.0034212	3	628.692
-0.0059656	-0.00342372	3	628.702
-0.00996333	-0.00343118	3	628.712
-0.013965	-0.00343289	3	628.722
-0.0179723	-0.00345706	3	628.732
-0.0219655	-0.003461	3	628.742
-0.0259765	-0.00347154	3	628.752
-0.0299779	-0.00347336	3	628.762
-0.0339811	-0.00348368	3	628.772
-0.037972	-0.00349721	3	628.782
-0.0419765	-0.00349594	3	628.792
-0.0459678	-0.00350346	3	628.802
-0.0499658	-0.00351722	3	628.812
-0.053974	-0.00352302	3	628.822
-0.0579684	-0.00352913	3	628.832
-0.0619643	-0.00353618	3	628.842
-0.0659644	-0.00354328	3	628.852
-0.0699625	-0.00354721	3	628.862
-0.0739739	-0.00355733	3	628.872
-0.0779649	-0.00356397	3	628.882
-0.0819699	-0.00356868	3	628.892
-0.08597	-0.00357427	3	628.902
-0.0899755	-0.00357885	3	628.912
-0.0939761	-0.00358379	3	628.922
-0.0979694	-0.00358866	3	628.932
-0.101974	-0.00359725	3	628.942
-0.105977	-0.00360039	3	628.952
-0.10997	-0.00360012	3	628.962
-0.113971	-0.00360835	3	628.972
-0.117962	-0.00361556	3	628.982
-0.121966	-0.0036153	3	628.992
-0.12597	-0.00362352	3	629.002
-0.129969	-0.00363172	3	629.012
-0.133958	-0.00363234	3	629.022
-0.137965	-0.0036415	3	629.032
-0.14197	-0.00364611	3	629.042
-0.14596	-0.00365037	3	629.052
-0.149967	-0.00366161	3	629.062
-0.153973	-0.00367189	3	629.072
-0.15797	-0.00367179	3	629.082
-0.16197	-0.00368311	3	629.092
-0.16597	-0.00369193	3	629.102
-0.169961	-0.00369376	3	629.112
-0.173957	-0.00370894	3	629.122
-0.177956	-0.0037191	3	629.132
-0.181964	-0.00373176	3	629.142
-0.185961	-0.00373806	3	629.152
-0.189962	-0.00375346	3	629.162
-0.193964	-0.00375959	3	629.172
-0.19788	-0.00377456	3	629.182
-0.199811	-0.00378191	3	629.187
-0.199979	-0.00377553	3	629.187
-0.200006	-0.00375145	4	629.188
-0.198181	0.000921229	4	629.193
-0.193774	0.00293294	4	629.203
-0.189788	0.00299797	4	629.213
-0.185788	0.00306697	4	629.223
-0.181793	0.0031122	4	629.233
-0.177781	0.00316362	4	629.243
-0.173779	0.00318339	4	629.253
-0.169783	0.00320798	4	629.263
-0.165785	0.0032319	4	629.273
-0.155782	0.00326142	4	629.298
-0.145775	0.0032856	4	629.323
-0.141787	0.00329751	4	629.333
-0.137775	0.00330571	4	629.343
-0.133782	0.00331271	4	629.353
-0.129783	0.00331949	4	629.363
-0.125782	0.00332438	4	629.373
-0.121788	0.00333156	4	629.383
-0.117777	0.00333584	4	629.393
-0.113785	0.00333871	4	629.403
-0.103778	0.0033465	4	629.428
-0.0938136	0.00336187	4	629.453
-0.0897992	0.00337245	4	629.463
-0.0857935	0.00336963	4	629.473
-0.0818025	0.00337308	4	629.483
-0.0777932	0.00337436	4	629.493
-0.0737965	0.0033774	4	629.503
-0.0697989	0.00337396	4	629.513
-0.0657969	0.00337418	4	629.523
-0.0617917	0.00337862	4	629.533
-0.0577943	0.00337601	4	629.543
-0.053808	0.00337457	4	629.553
-0.0498042	0.00338056	4	629.563
-0.0458067	0.00337695	4	629.573
-0.0418043	0.00337353	4	629.583
-0.0378026	0.00337577	4	629.593
-0.033806	0.00337118	4	629.603
-0.0298061	0.00337665	4	629.613
-0.0258087	0.00337232	4	629.623
-0.0217971	0.00337213	4	629.633
-0.0177967	0.00337138	4	629.643
-0.0138032	0.00336582	4	629.653
-0.00979455	0.00336861	4	629.663
-0.00579737	0.00336427	4	629.673
-0.00179387	0.00337138	4	629.683
0.00221683	0.00337032	4	629.693
0.00621213	0.00336489	4	629.703
0.0102187	0.00336289	4	629.713
0.0142069	0.00335969	4	629.723
0.0182167	0.00335872	4	629.733
0.0222161	0.00335702	4	629.743
0.0262108	0.00336088	4	629.753
0.0302244	0.0033676	4	629.763
0.0342206	0.00335517	4	629.773
0.0382216	0.00335655	4	629.783
0.0422199	0.00335605	4	629.793
0.0462211	0.00335241	4	629.803
0.0502199	0.00335667	4	629.813
0.0542197	0.00335437	4	629.823
0.0582241	0.00335396	4	629.833
0.062222	0.00335056	4	629.843
0.0662219	0.00335191	4	629.853
0.0702293	0.00335428	4	629.863
0.0742153	0.00334624	4	629.873
0.078226	0.00335452	4	629.883
0.0822273	0.00334856	4	629.893
0.0862302	0.00334894	4	629.903
0.0902228	0.00334567	4	629.913
0.0942209	0.00333972	4	629.923
0.0982283	0.00334587	4	629.933
0.102222	0.00334611	4	629.943
0.106228	0.00333902	4	629.953
0.110224	0.00334234	4	629.963
0.114221	0.00333661	4	629.973
0.118222	0.00334131	4	629.983
0.122222	0.0033364	4	629.993
0.126231	0.00333574	4	630.003
0.130226	0.00333933	4	630.013
0.134238	0.00333506	4	630.023
0.138235	0.0033343	4	630.033
0.142221	0.00332779	4	630.043
0.146218	0.00333295	4	630.053
0.150217	0.00333296	4	630.063
0.154222	0.00333093	4	630.073
0.158224	0.00333379	4	630.083
0.162212	0.00333122	4	630.093
0.166219	0.00333128	4	630.103
0.170216	0.00332882	4	630.113
0.174217	0.00333293	4	630.123
0.178221	0.00333183	4	630.133
0.182216	0.00333193	4	630.143
0.18621	0.00332764	4	630.153
0.19022	0.00332527	4	630.163
0.19422	0.00332695	4	630.173
0.198102	0.00332524	4	630.182
0.200068	0.00331869	4	630.187
0.200083	0.00331349	4	630.187
0.200156	0.0032878	4	630.188
0.198384	-0.000923989	4	630.193
0.194035	-0.00254741	4	630.203
0.19003	-0.00261472	4	630.213
0.186044	-0.00267405	4	630.223
0.182049	-0.00272954	4	630.233
0.178051	-0.00277032	4	630.243
0.161977	-0.00289499	4	630.283
0.158014	-0.00291776	4	630.293
0.154014	-0.00294149	4	630.303
0.150004	-0.00295791	4	630.313
0.146016	-0.00297042	4	630.323
0.142019	-0.0029921	4	630.333
0.138025	-0.00300875	4	630.343
0.134027	-0.00302119	4	630.353
0.130017	-0.00303514	4	630.363
0.126018	-0.00305841	4	630.373
0.116035	-0.00306359	4	630.398
0.106047	-0.00311209	4	630.423
0.102054	-0.00311953	4	630.433
0.0980493	-0.00313247	4	630.443
0.0940548	-0.00314105	4	630.453
0.0900481	-0.00315685	4	630.463
0.0860481	-0.00316752	4	630.473
0.0820426	-0.00317801	4	630.483
0.0780495	-0.00318987	4	630.493
0.074049	-0.00320613	4	630.503
0.0700478	-0.0032146	4	630.513
0.0660423	-0.00322359	4	630.523
0.062037	-0.00323911	4	630.533
0.058049	-0.00324982	4	630.543
0.0540506	-0.00326187	4	630.553
0.0500523	-0.00327369	4	630.563
0.0460406	-0.00328388	4	630.573
0.0420438	-0.00329333	4	630.583
0.0380397	-0.00330675	4	630.593
0.0340461	-0.00331833	4	630.603
0.0300512	-0.0033297	4	630.613
0.0260388	-0.00334484	4	630.623
0.0220417	-0.0033503	4	630.633
0.018047	-0.00336015	4	630.643
0.0140373	-0.00336828	4	630.653
0.0100457	-0.00337994	4	630.663
0.00603656	-0.00339144	4	630.673
0.00204076	-0.00339809	4	630.683
-0.00196956	-0.00341395	4	630.693
-0.00597746	-0.00342281	4	630.703
-0.00996988	-0.00342367	4	630.713
-0.0139814	-0.00343533	4	630.723
-0.0179787	-0.0034445	4	630.733
-0.0219711	-0.00344526	4	630.743
-0.0259751	-0.00346673	4	630.753
-0.0299748	-0.00347246	4	630.763
-0.033983	-0.00347761	4	630.773
-0.0379737	-0.00348746	4	630.783
-0.041976	-0.00349065	4	630.793
-0.0459781	-0.00350212	4	630.803
-0.0499784	-0.00350819	4	630.813
-0.0539721	-0.00352006	4	630.823
-0.0579777	-0.00352075	4	630.833
-0.0619677	-0.00352869	4	630.843
-0.0659768	-0.0035375	4	630.853
-0.0699679	-0.00353697	4	630.863
-0.0739781	-0.00354998	4	630.873
-0.0779734	-0.00355819	4	630.883
-0.0819774	-0.00355911	4	630.893
-0.0859752	-0.00356842	4	630.903
-0.08997	-0.00357311	4	630.913
-0.0939661	-0.00357456	4	630.923
-0.0979711	-0.00358144	4	630.933
-0.101971	-0.00358989	4	630.943
-0.105968	-0.00359054	4	630.953
-0.109976	-0.00359362	4	630.963
-0.113974	-0.00360244	4	630.973
-0.117965	-0.00360419	4	630.983
-0.121973	-0.00361284	4	630.993
-0.125974	-0.00361766	4	631.003
-0.129969	-0.00362299	4	631.013
-0.133976	-0.00362801	4	631.023
-0.137979	-0.00362946	4	631.033
-0.141972	-0.00363923	4	631.043
-0.145963	-0.00364177	4	631.053
-0.149971	-0.00364923	4	631.063
-0.153977	-0.00366194	4	631.073
-0.157968	-0.00366501	4	631.083
-0.161968	-0.00367178	4	631.093
-0.165961	-0.00368026	4	631.103
-0.169958	-0.00368567	4	631.113
-0.173949	-0.0036951	4	631.123
-0.177959	-0.00371418	4	631.133
-0.181959	-0.0037188	4	631.143
-0.185958	-0.00373151	4	631.153
-0.189962	-0.00373533	4	631.163
-0.193962	-0.00375376	4	631.173
-0.197883	-0.00376415	4	631.182
-0.199834	-0.00376739	4	631.187
-0.199983	-0.00376024	4	631.188
-0.200048	-0.00373901	5	631.188
-0.198179	0.000931193	5	631.193
-0.193777	0.00293906	5	631.203
-0.183762	0.00305658	5	631.228
-0.173763	0.00317879	5	631.253
-0.169771	0.00319919	5	631.263
-0.165766	0.00322603	5	631.273
-0.161774	0.00323954	5	631.283
-0.157774	0.00325758	5	631.293
-0.153779	0.00326741	5	631.303
-0.149775	0.00328096	5	631.313
-0.145778	0.00329095	5	631.323
-0.141776	0.00329978	5	631.333
-0.131791	0.00331593	5	631.358
-0.121799	0.00334185	5	631.383
-0.117788	0.00334516	5	631.393
-0.113801	0.00335077	5	631.403
-0.109797	0.00334747	5	631.413
-0.105794	0.00335454	5	631.423
-0.101793	0.00336536	5	631.433
-0.0977797	0.00336371	5	631.443
-0.0937953	0.00336927	5	631.453
-0.0897894	0.00336537	5	631.463
-0.0857838	0.00337293	5	631.473
-0.0817898	0.00337037	5	631.483
-0.0777785	0.00337995	5	631.493
-0.0737875	0.00337253	5	631.503
-0.0697783	0.00337322	5	631.513
-0.0657836	0.00337349	5	631.523
-0.0617855	0.0033765	5	631.533
-0.0577883	0.00337511	5	631.543
-0.0537844	0.00337301	5	631.553
-0.0497961	0.00337504	5	631.563
-0.0457927	0.00337588	5	631.573
-0.0417817	0.00337528	5	631.583
-0.0377888	0.00337028	5	631.593
-0.0337962	0.00337543	5	631.603
-0.0297897	0.00337136	5	631.613
-0.0257906	0.0033739	5	631.623
-0.0217892	0.00336791	5	631.633
-0.017787	0.00336831	5	631.643
-0.013792	0.0033668	5	631.653
-0.00977567	0.00336478	5	631.663
-0.00578672	0.00336075	5	631.673
-0.00178479	0.00336931	5	631.683
0.00222147	0.00336689	5	631.693
0.00621934	0.00335921	5	631.703
0.010218	0.00335991	5	631.713
0.0142226	0.00336089	5	631.723
0.0182273	0.00335891	5	631.733
0.0222258	0.00335457	5	631.743
0.0262181	0.00336	5	631.753
0.0302415	0.00336364	5	631.763
0.0342286	0.0033565	5	631.773
0.0382303	0.0033512	5	631.783
0.0422243	0.0033544	5	631.793
0.0462332	0.00335326	5	631.803
0.050241	0.00335065	5	631.813
0.0542299	0.00335545	5	631.823
0.0582343	0.00335074	5	631.833
0.062236	0.00334952	5	631.843
0.0662383	0.00335232	5	631.853
0.0702285	0.00334944	5	631.863
0.0742292	0.00334298	5	631.873
0.0782315	0.00335149	5	631.883
0.0822404	0.0033466	5	631.893
0.0862394	0.00334537	5	631.903
0.0902369	0.00333746	5	631.913
0.0942397	0.00334287	5	631.923
0.0982404	0.00334043	5	631.933
0.102233	0.00334337	5	631.943
0.106233	0.00333769	5	631.953
0.110235	0.00334098	5	631.963
0.114231	0.00333362	5	631.973
0.118231	0.00333946	5	631.983
0.122234	0.00333705	5	631.993
0.126236	0.0033318	5	632.003
0.13023	0.00333654	5	632.013
0.134238	0.00333076	5	632.023
0.138242	0.0033308	5	632.033
0.142232	0.00332963	5	632.043
0.146228	0.00333129	5	632.053
0.150226	0.00332912	5	632.063
0.154224	0.00333145	5	632.073
0.158231	0.00333088	5	632.083
0.162238	0.00333336	5	632.093
0.166242	0.00332831	5	632.103
0.170225	0.00332578	5	632.113
0.174225	0.00333291	5	632.123
0.178229	0.00332898	5	632.133
0.182233	0.00332744	5	632.143
0.186231	0.0033258	5	632.153
0.190229	0.00333112	5	632.163
0.194227	0.0033254	5	632.173
0.198105	0.00332306	5	632.183
0.20006	0.00331834	5	632.188
0.200075	0.00331724	5	632.188
0.200125	0.00329143	5	632.188
0.198405	-0.000919349	5	632.193
0.194032	-0.00255365	5	632.203
0.19004	-0.00260831	5	632.213
0.186042	-0.00268031	5	632.223
0.182045	-0.00272757	5	632.233
0.178051	-0.00277083	5	632.243
0.174048	-0.00280313	5	632.253
0.170048	-0.00283156	5	632.263
0.160001	-0.00290094	5	632.288
0.150008	-0.00295665	5	632.313
0.146021	-0.00297021	5	632.323
0.14202	-0.00298917	5	632.333
0.138028	-0.00300301	5	632.343
0.134028	-0.0030207	5	632.353
0.130026	-0.0030346	5	632.363
0.126016	-0.00305155	5	632.373
0.12202	-0.00306035	5	632.383
0.118026	-0.00307344	5	632.393
0.10804	-0.00308905	5	632.418
0.0980578	-0.00312808	5	632.443
0.0940443	-0.00314308	5	632.453
0.0900527	-0.00315189	5	632.463
0.0860525	-0.00316284	5	632.473
0.0820501	-0.00317838	5	632.483
0.0780544	-0.00318641	5	632.493
0.0740441	-0.00320527	5	632.503
0.0700522	-0.00321033	5	632.513
0.066045	-0.00322317	5	632.523
0.0620423	-0.00323824	5	632.533
0.0580524	-0.00324463	5	632.543
0.054053	-0.00325923	5	632.553
0.0500466	-0.00326998	5	632.563
0.0460572	-0.00327677	5	632.573
0.0420438	-0.00329557	5	632.583
0.0380426	-0.00330873	5	632.593
0.0340419	-0.00331119	5	632.603
0.0300515	-0.00332507	5	632.613
0.0260407	-0.00334443	5	632.623
0.0220386	-0.00335092	5	632.633
0.0180427	-0.00335684	5	632.643
0.0140353	-0.00336845	5	632.653
0.010045	-0.00337272	5	632.663
0.00603968	-0.00338946	5	632.673
0.0020459	-0.00339401	5	632.683
-0.00195817	-0.00341395	5	632.693
-0.00597508	-0.00341219	5	632.703
-0.00995986	-0.0034215	5	632.713
-0.0139644	-0.00343476	5	632.723
-0.0179681	-0.0034426	5	632.733
-0.0219702	-0.00344765	5	632.743
-0.0259704	-0.00345821	5	632.753
-0.0299732	-0.00346919	5	632.763
-0.0339772	-0.00347299	5	632.773
-0.0379644	-0.00347957	5	632.783
-0.0419669	-0.00349418	5	632.793
-0.0459735	-0.00349634	5	632.803
-0.0499834	-0.00350632	5	632.813
-0.0539734	-0.00351453	5	632.823
-0.0579624	-0.00352009	5	632.833
-0.0619669	-0.00352326	5	632.843
-0.0659656	-0.00353467	5	632.853
-0.0699602	-0.00353709	5	632.863
-0.0739767	-0.00354388	5	632.873
-0.077962	-0.0035554	5	632.883
-0.0819742	-0.00355587	5	632.893
-0.0859752	-0.00356348	5	632.903
-0.0899738	-0.00356642	5	632.913
-0.0939745	-0.0035718	5	632.923
-0.0979734	-0.00357682	5	632.933
-0.101973	-0.00358145	5	632.943
-0.105973	-0.0035905	5	632.953
-0.109971	-0.00359053	5	632.963
-0.113987	-0.00359634	5	632.973
-0.117967	-0.00359707	5	632.983
-0.121983	-0.0036085	5	632.993
-0.125968	-0.0036108	5	633.003
-0.129984	-0.00362004	5	633.013
-0.133977	-0.0036217	5	633.023
-0.137972	-0.0036283	5	633.033
-0.141973	-0.00362692	5	633.043
-0.145963	-0.00363987	5	633.053
-0.149974	-0.00365096	5	633.063
-0.153967	-0.00365011	5	633.073
-0.157964	-0.00365683	5	633.083
-0.16197	-0.00366796	5	633.093
-0.165963	-0.00367576	5	633.103
-0.169964	-0.00368349	5	633.113
-0.173965	-0.00369435	5	633.123
-0.177951	-0.00369936	5	633.133
-0.181967	-0.00371775	5	633.143
-0.185963	-0.00372155	5	633.153
-0.189964	-0.00373386	5	633.163
-0.193966	-0.00374637	5	633.173
-0.197877	-0.003753	5	633.183
-0.199857	-0.00377006	5	633.188
-0.199956	-0.00376563	5	633.188
-0.200094	-0.0037417	5	633.188
-0.198179	0.000935862	5	633.193
-0.193781	0.00294257	5	633.203
-0.189795	0.00300934	5	633.213
-0.185782	0.00307071	5	633.223
-0.175783	0.00316098	5	633.248
-0.165767	0.00322093	5	633.273
-0.161782	0.00323975	5	633.283
-0.157778	0.00325714	5	633.293
-0.153787	0.00327156	5	633.303
-0.149775	0.0032852	5	633.313
-0.145773	0.00329017	5	633.323
-0.141777	0.0032978	5	633.333
-0.137777	0.00330873	5	633.343
-0.133772	0.00332015	5	633.353
-0.123759	0.00332414	5	633.378
-0.1138	0.00334671	5	633.403
-0.109806	0.00334976	5	633.413
-0.105808	0.00336016	5	633.423
-0.101799	0.00336062	5	633.433
-0.0977962	0.00336091	5	633.443
-0.0937976	0.00336635	5	633.453
-0.0898048	0.00336676	5	633.463
-0.0857994	0.0033686	5	633.473
-0.0818056	0.00336841	5	633.483
-0.0778044	0.00337416	5	633.493
-0.073804	0.00337024	5	633.503
-0.0697889	0.00337653	5	633.513
-0.065796	0.00337346	5	633.523
-0.0617876	0.00337184	5	633.533
-0.0577855	0.0033799	5	633.543
-0.0537927	0.00336871	5	633.553
-0.0497882	0.00337456	5	633.563
-0.0457972	0.00337476	5	633.573
-0.0417893	0.00337574	5	633.583
-0.0377976	0.00336833	5	633.593
-0.0337924	0.00337921	5	633.603
-0.0298013	0.00336241	5	633.613
-0.0258001	0.00337699	5	633.623
-0.0217885	0.00336635	5	633.633
-0.0177923	0.00336736	5	633.643
-0.0137961	0.00336069	5	633.653
-0.00978807	0.00336229	5	633.663
-0.00579152	0.00336437	5	633.673
-0.00178888	0.00336325	5	633.683
0.0022148	0.00336124	5	633.693
0.00621798	0.0033618	5	633.703
0.0102246	0.00335755	5	633.713
0.0142145	0.00335924	5	633.723
0.0182196	0.00335419	5	633.733
0.0222135	0.00335639	5	633.743
0.0262218	0.00335827	5	633.753
0.0302277	0.00335864	5	633.763
0.0342223	0.00335628	5	633.773
0.0382263	0.00335157	5	633.783
0.0422214	0.00335023	5	633.793
0.0462222	0.00335592	5	633.803
0.0502281	0.00334937	5	633.813
0.0542331	0.00334994	5	633.823
0.0582325	0.00334774	5	633.833
0.062227	0.00334771	5	633.843
0.0662253	0.00334809	5	633.853
0.0702306	0.00334838	5	633.863
0.0742208	0.00334265	5	633.873
0.0782345	0.00335162	5	633.883
0.08223	0.00334083	5	633.893
0.0862308	0.0033455	5	633.903
0.0902242	0.00333746	5	633.913
0.0942275	0.00334191	5	633.923
0.0982272	0.00333712	5	633.933
0.10222	0.00334059	5	633.943
0.106232	0.0033429	5	633.953
0.110227	0.00333341	5	633.963
0.114222	0.0033336	5	633.973
0.118221	0.00333515	5	633.983
0.122212	0.00333194	5	633.993
0.126225	0.00333194	5	634.003
0.130218	0.00333413	5	634.013
0.134226	0.00332923	5	634.023
0.138222	0.00332839	5	634.033
0.142225	0.00333033	5	634.043
0.146212	0.00332754	5	634.053
0.150219	0.00332987	5	634.063
0.154216	0.00333228	5	634.073
0.158222	0.00333019	5	634.083
0.162221	0.00332632	5	634.093
0.166218	0.00332829	5	634.103
0.170218	0.00332887	5	634.113
0.174219	0.00332629	5	634.123
0.178221	0.00333128	5	634.133
0.18222	0.00332794	5	634.143
0.186226	0.00332711	5	634.153
0.19022	0.0033256	5	634.163
0.194217	0.00332828	5	634.173
0.198215	0.00331998	5	634.183
0.202218	0.00332343	5	634.193
0.206221	0.00332244	5	634.203
0.210214	0.00331931	5	634.213
0.214217	0.00331608	5	634.223
0.218211	0.00331576	5	634.233
0.222217	0.00331351	5	634.243
0.226217	0.0033098	5	634.253
0.230208	0.00330859	5	634.263
0.234224	0.00330327	5	634.273
0.238218	0.00330114	5	634.283
0.242223	0.00329222	5	634.293
0.246223	0.00329605	5	634.303
0.250225	0.00329039	5	634.313
0.252517	0.00328906	5	634.319
0.252812	0.00329059	5	634.32
0.252911	0.0032849	5	634.32