File: test_trajectories/cyclic_voltammetry/biologic7.txt
Ewe/V	<I>/mA	time/s	cycle number
0.0694205	0.00909104	3.8083	1
0.0893994	0.00819005	7.8064	1
0.109396	0.0070648	11.8046	1
0.12937	0.00606102	15.8027	1
0.149373	0.0053571	19.8008	1
0.16934	0.00502421	23.799	1
0.189358	0.00491138	27.7971	1
0.209345	0.00484734	31.7952	1
0.229351	0.00474321	35.7934	1
0.249346	0.00459785	39.7915	1
0.269333	0.00444398	43.7897	1
0.289521	0.00429529	47.8278	1
0.309467	0.00418265	51.8259	1
0.329482	0.0040988	55.8241	1
0.349477	0.00404229	59.8222	1
0.369459	0.00401358	63.8204	1
0.389438	0.00400962	67.8185	1
0.409443	0.00403435	71.8166	1
0.429451	0.0040867	75.8148	1
0.449428	0.00416391	79.8129	1
0.431444	0.00338906	83.6316	1
0.411439	0.00290452	87.6298	1
0.391465	0.00252003	91.6279	1
0.371457	0.00219496	95.626	1
0.351483	0.00191289	99.6242	1
0.331484	0.00165664	103.622	1
0.311519	0.0014204	107.62	1
0.291537	0.0011904	111.619	1
0.271558	0.000952658	115.617	1
0.251549	0.000679276	119.615	1
0.231559	0.000329079	123.613	1
0.211366	-0.000172165	127.651	1
0.19139	-0.000768666	131.649	1
0.171263	-0.00136712	135.667	1
0.151278	-0.00181934	139.666	1
0.131303	-0.00213732	143.664	1
0.111286	-0.00273428	147.662	1
0.0913293	-0.00371535	151.66	1
0.0713317	-0.00493892	155.658	1
0.0513235	-0.00620682	159.656	1
0.0313465	-0.00738187	163.654	1
0.011338	-0.00849561	167.652	1
-0.00865263	-0.00941262	171.651	1
-0.0286339	-0.0102822	175.649	1
-0.0487011	-0.0104873	179.667	1
-0.0687289	-0.0113271	183.665	1
-0.088722	-0.0119804	187.663	1
-0.108674	-0.0126548	191.661	1
-0.128678	-0.013445	195.659	1
-0.148676	-0.0142706	199.658	1
-0.168673	-0.0149498	203.656	1
-0.188673	-0.0155531	207.654	1
-0.208674	-0.0160004	211.652	1
-0.228671	-0.0165342	215.65	1
-0.248661	-0.0170912	219.648	1
-0.268657	-0.017862	223.646	1
-0.288633	-0.0188233	227.645	1
-0.308582	-0.0199238	231.643	1
-0.328601	-0.0209296	235.641	1
-0.348586	-0.021711	239.639	1
-0.368563	-0.0222065	243.637	1
-0.388586	-0.0225695	247.635	1
-0.408559	-0.0228953	251.633	1
-0.428544	-0.0232884	255.632	1
-0.448528	-0.0236699	259.63	1
-0.468527	-0.0240558	263.628	1
-0.488508	-0.0243239	267.626	1
-0.508505	-0.0245619	271.624	1
-0.528474	-0.0245533	275.622	1
-0.548455	-0.0246059	279.62	1
-0.568446	-0.0245174	283.619	1
-0.588446	-0.0243445	287.617	1
-0.608439	-0.0243468	291.615	1
-0.628446	-0.0243168	295.613	1
-0.648421	-0.0243918	299.611	1
-0.668423	-0.0245643	303.609	1
-0.688443	-0.0248211	307.607	1
-0.708401	-0.0255013	311.606	1
-0.728373	-0.0266883	315.604	1
-0.748349	-0.0283736	319.602	1
-0.768369	-0.0310119	323.6	1
-0.788337	-0.0347165	327.598	1
-0.808349	-0.0399454	331.596	1
-0.828313	-0.0471794	335.594	1
-0.848298	-0.0566955	339.593	1
-0.868304	-0.0677104	343.591	1
-0.888284	-0.0772862	347.589	1
-0.908286	-0.0774747	351.587	1
-0.928247	-0.0655601	355.585	1
-0.948259	-0.0506471	359.583	1
-0.968243	-0.0387607	363.581	1
-0.988275	-0.0308724	367.579	1
-1.00824	-0.0259717	371.578	1
-1.02824	-0.0229724	375.576	1
-1.04823	-0.0210893	379.574	1
-1.06825	-0.0198098	383.572	1
-1.08824	-0.0188526	387.57	1
-1.10823	-0.0180548	391.568	1
-1.12819	-0.0173018	395.566	1
-1.14818	-0.0166157	399.565	1
-1.16817	-0.0160417	403.563	1
-1.18815	-0.0156326	407.561	1
-1.20813	-0.0153581	411.559	1
-1.22811	-0.0152011	415.557	1
-1.24813	-0.0151412	419.555	1
-1.26809	-0.0151304	423.553	1
-1.28811	-0.0151672	427.552	1
-1.30808	-0.0152233	431.55	1
-1.32809	-0.0153181	435.548	1
-1.34805	-0.015454	439.546	1
-1.36802	-0.0156121	443.544	1
-1.38802	-0.01581	447.542	1
-1.40799	-0.0160547	451.54	1
-1.42803	-0.0163536	455.539	1
-1.44802	-0.0167452	459.537	1
-1.46801	-0.0172602	463.535	1
-1.48799	-0.017944	467.533	1
-1.50797	-0.0187561	471.531	1
-1.52795	-0.0198705	475.529	1
-1.54792	-0.0214137	479.527	1
-1.53335	-0.0190981	483.226	1
-1.51336	-0.0173369	487.224	1
-1.49338	-0.0160666	491.222	1
-1.47339	-0.0150714	495.221	1
-1.4534	-0.0142823	499.219	1
-1.43339	-0.0136194	503.217	1
-1.41341	-0.0130832	507.215	1
-1.39341	-0.0126279	511.213	1
-1.3734	-0.0122321	515.211	1
-1.35343	-0.0118885	519.209	1
-1.33344	-0.0115818	523.208	1
-1.31349	-0.0112897	527.206	1
-1.29347	-0.0110041	531.204	1
-1.2735	-0.0107393	535.202	1
-1.2535	-0.0104847	539.2	1
-1.23349	-0.0102514	543.198	1
-1.21351	-0.010019	547.196	1
-1.19354	-0.00978399	551.195	1
-1.17353	-0.00952984	555.193	1
-1.15354	-0.00924557	559.191	1
-1.13354	-0.00894825	563.189	1
-1.11361	-0.00863046	567.187	1
-1.09361	-0.00827378	571.185	1
-1.07363	-0.00787344	575.183	1
-1.05362	-0.00733187	579.182	1
-1.03362	-0.00651146	583.18	1
-1.0136	-0.00520007	587.178	1
-0.993409	-0.00297974	591.216	1
-0.973429	0.000920607	595.214	1
-0.953443	0.00793285	599.212	1
-0.933351	0.0204471	603.23	1
-0.913402	0.0420209	607.228	1
-0.893434	0.0705136	611.227	1
-0.873429	0.0828135	615.225	1
-0.853424	0.0628171	619.223	1
-0.833453	0.0458747	623.221	1
-0.813426	0.0335149	627.219	1
-0.793464	0.0251178	631.217	1
-0.773467	0.0200427	635.215	1
-0.753437	0.0173007	639.214	1
-0.733466	0.0157171	643.212	1
-0.713472	0.0149837	647.21	1
-0.693514	0.0150385	651.208	1
-0.673508	0.0152915	655.206	1
-0.653514	0.0156775	659.204	1
-0.63352	0.0161081	663.202	1
-0.613528	0.01659	667.201	1
-0.593512	0.017226	671.199	1
-0.573524	0.0181115	675.197	1
-0.553533	0.018831	679.195	1
-0.533586	0.0195663	683.193	1
-0.513555	0.020152	687.191	1
-0.493604	0.0203493	691.189	1
-0.473633	0.0205202	695.188	1
-0.453634	0.0206047	699.186	1
-0.433625	0.0208388	703.184	1
-0.413639	0.0211101	707.182	1
-0.393637	0.0212881	711.18	1
-0.373676	0.0215263	715.178	1
-0.353677	0.0216767	719.176	1
-0.333678	0.0216354	723.175	1
-0.31369	0.021347	727.173	1
-0.293719	0.0206217	731.171	1
-0.273722	0.01979	735.169	1
-0.253737	0.0187434	739.167	1
-0.233741	0.0181675	743.165	1
-0.213765	0.0178909	747.163	1
-0.19374	0.017698	751.162	1
-0.173744	0.0174688	755.16	1
-0.153733	0.0172148	759.158	1
-0.133724	0.017132	763.156	1
-0.113744	0.0170364	767.154	1
-0.0937864	0.0168239	771.152	1
-0.0738057	0.0164723	775.15	1
-0.0538187	0.0161977	779.148	1
-0.0338291	0.0158872	783.147	1
-0.0138375	0.0154818	787.145	1
0.00617561	0.0148757	791.143	1
0.0261755	0.0141561	795.141	1
0.0461592	0.0132813	799.139	1
0.0646668	0.0121819	802.837	2
0.0846318	0.0108222	806.836	2
0.104616	0.00925703	810.834	2
0.1246	0.00783737	814.832	2
0.144595	0.00665563	818.83	2
0.164598	0.00590055	822.828	2
0.184585	0.00549768	826.826	2
0.204599	0.00529106	830.824	2
0.224605	0.00513461	834.823	2
0.244568	0.00497349	838.821	2
0.26456	0.00480946	842.819	2
0.284543	0.0046501	846.817	2
0.304559	0.00450548	850.815	2
0.324682	0.00438623	854.853	2
0.344669	0.00428521	858.851	2
0.364662	0.00420637	862.85	2
0.384675	0.00415619	866.848	2
0.404669	0.00413766	870.846	2
0.424677	0.00414771	874.844	2
0.444646	0.00417939	878.842	2
0.43643	0.00359582	882.621	2
0.416437	0.00309484	886.619	2
0.396467	0.00270557	890.617	2
0.376469	0.00238162	894.615	2
0.356497	0.00210007	898.613	2
0.33648	0.00184717	902.612	2
0.316484	0.00161252	906.61	2
0.296527	0.00137778	910.608	2
0.276567	0.0011341	914.606	2
0.256536	0.000863767	918.604	2
0.236555	0.000546886	922.602	2
0.216552	0.000137404	926.6	2
0.196565	-0.000383755	930.599	2
0.176564	-0.000950419	934.597	2
0.156559	-0.00139984	938.595	2
0.136572	-0.00173092	942.593	2
0.116577	-0.00231152	946.591	2
0.0965931	-0.00328596	950.589	2
0.0766176	-0.00448202	954.587	2
0.0566303	-0.00579047	958.585	2
0.036643	-0.00702481	962.584	2
0.0166343	-0.00816926	966.582	2
-0.0033648	-0.00917824	970.58	2
-0.0233325	-0.0101657	974.578	2
-0.0434527	-0.010446	978.596	2
-0.063475	-0.0113619	982.594	2
-0.0834306	-0.0120622	986.592	2
-0.103404	-0.012725	990.591	2
-0.123363	-0.0134596	994.589	2
-0.143391	-0.0141441	998.587	2
-0.163356	-0.0147065	1002.59	2
-0.183376	-0.015041	1006.58	2
-0.203374	-0.0154745	1010.58	2
-0.223367	-0.0159001	1014.58	2
-0.243354	-0.0165168	1018.58	2
-0.263367	-0.0171783	1022.58	2
-0.283345	-0.0180331	1026.57	2
-0.30333	-0.0189839	1030.57	2
-0.323293	-0.0199196	1034.57	2
-0.34329	-0.0207017	1038.57	2
-0.363296	-0.0211992	1042.57	2
-0.383273	-0.0215085	1046.56	2
-0.403258	-0.0218214	1050.56	2
-0.423262	-0.0222407	1054.56	2
-0.443264	-0.0225818	1058.56	2
-0.463263	-0.0229767	1062.56	2
-0.483273	-0.0232335	1066.56	2
-0.503226	-0.0233158	1070.55	2
-0.523215	-0.0234179	1074.55	2
-0.543204	-0.0233622	1078.55	2
-0.563199	-0.0233121	1082.55	2
-0.583159	-0.0232248	1086.55	2
-0.603166	-0.0230025	1090.54	2
-0.62317	-0.0229167	1094.54	2
-0.643154	-0.022943	1098.54	2
-0.663137	-0.02301	1102.54	2
-0.683141	-0.0234304	1106.54	2
-0.703133	-0.0239966	1110.53	2
-0.723091	-0.025027	1114.53	2
-0.743098	-0.0268363	1118.53	2
-0.763077	-0.0293984	1122.53	2
-0.783047	-0.0330408	1126.53	2
-0.803052	-0.038107	1130.53	2
-0.823025	-0.0451545	1134.52	2
-0.843062	-0.0542543	1138.52	2
-0.863042	-0.0651479	1142.52	2
-0.883049	-0.0750443	1146.52	2
-0.903007	-0.0762338	1150.52	2
-0.922969	-0.0652234	1154.51	2
-0.942956	-0.0503529	1158.51	2
-0.962942	-0.0383601	1162.51	2
-0.982934	-0.0302642	1166.51	2
-1.00295	-0.0250822	1170.51	2
-1.02293	-0.0218793	1174.51	2
-1.04294	-0.0198308	1178.5	2
-1.06291	-0.0184399	1182.5	2
-1.08289	-0.0174437	1186.5	2
-1.1029	-0.0166899	1190.5	2
-1.12293	-0.0160026	1194.5	2
-1.14287	-0.0153661	1198.49	2
-1.16286	-0.0148411	1202.49	2
-1.18285	-0.014436	1206.49	2
-1.20283	-0.0141793	1210.49	2
-1.22284	-0.0140392	1214.49	2
-1.24281	-0.0139753	1218.48	2
-1.26281	-0.0139639	1222.48	2
-1.2828	-0.0139939	1226.48	2
-1.30281	-0.0140574	1230.48	2
-1.32279	-0.0141497	1234.48	2
-1.34276	-0.0142554	1238.48	2
-1.36275	-0.0143925	1242.47	2
-1.38276	-0.0145498	1246.47	2
-1.40275	-0.0147454	1250.47	2
-1.42271	-0.0149668	1254.47	2
-1.44272	-0.0152697	1258.47	2
-1.46273	-0.0156835	1262.46	2
-1.48273	-0.016239	1266.46	2
-1.5027	-0.0168765	1270.46	2
-1.52267	-0.0178608	1274.46	2
-1.54265	-0.0191601	1278.46	2
-1.53836	-0.0178883	1282.22	2
-1.51838	-0.0161	1286.21	2
-1.49842	-0.0148453	1290.21	2
-1.47841	-0.0138985	1294.21	2
-1.45843	-0.0131428	1298.21	2
-1.43842	-0.0125177	1302.21	2
-1.41841	-0.0120149	1306.2	2
-1.39844	-0.0115948	1310.2	2
-1.37844	-0.0112353	1314.2	2
-1.35845	-0.0109145	1318.2	2
-1.33847	-0.0106215	1322.2	2
-1.31851	-0.010344	1326.19	2
-1.29852	-0.0100978	1330.19	2
-1.27854	-0.00985798	1334.19	2
-1.25852	-0.00962431	1338.19	2
-1.23856	-0.0093875	1342.19	2
-1.21853	-0.0091703	1346.19	2
-1.19858	-0.00894375	1350.18	2
-1.17859	-0.0087135	1354.18	2
-1.15857	-0.00847103	1358.18	2
-1.13861	-0.00823235	1362.18	2
-1.11863	-0.00791188	1366.18	2
-1.09865	-0.00755748	1370.17	2
-1.07863	-0.00722008	1374.17	2
-1.05863	-0.00677446	1378.17	2
-1.03866	-0.0060804	1382.17	2
-1.01865	-0.00500394	1386.17	2
-0.998537	-0.00320173	1390.19	2
-0.978538	-7.81702e-05	1394.18	2
-0.958573	0.00552854	1398.18	2
-0.938459	0.0155797	1402.2	2
-0.918511	0.033529	1406.2	2
-0.898511	0.0606528	1410.2	2
-0.878536	0.082849	1414.19	2
-0.85855	0.0700414	1418.19	2
-0.838549	0.0510929	1422.19	2
-0.818554	0.0373251	1426.19	2
-0.798561	0.0276401	1430.19	2
-0.77857	0.0216392	1434.18	2
-0.75858	0.0179406	1438.18	2
-0.738578	0.0160258	1442.18	2
-0.718582	0.0151952	1446.18	2
-0.698623	0.0148683	1450.18	2
-0.678673	0.0150862	1454.18	2
-0.658633	0.0153542	1458.17	2
-0.638658	0.0158187	1462.17	2
-0.618649	0.0163263	1466.17	2
-0.598668	0.0168273	1470.17	2
-0.578676	0.0174702	1474.17	2
-0.558713	0.0182559	1478.16	2
-0.538694	0.0189348	1482.16	2
-0.518707	0.0197084	1486.16	2
-0.498747	0.0197845	1490.16	2
-0.478769	0.0198867	1494.16	2
-0.458768	0.0200063	1498.15	2
-0.438741	0.0200956	1502.15	2
-0.418746	0.0201732	1506.15	2
-0.398773	0.0203754	1510.15	2
-0.378779	0.0204717	1514.15	2
-0.358777	0.0206307	1518.15	2
-0.338799	0.0205581	1522.14	2
-0.318802	0.0203222	1526.14	2
-0.298834	0.0198876	1530.14	2
-0.27885	0.0192276	1534.14	2
-0.258842	0.0185853	1538.14	2
-0.238867	0.0181884	1542.13	2
-0.218896	0.0178611	1546.13	2
-0.198854	0.0177133	1550.13	2
-0.178876	0.0174808	1554.13	2
-0.158886	0.0172619	1558.13	2
-0.138874	0.017103	1562.13	2
-0.118884	0.0167864	1566.12	2
-0.0989372	0.0165008	1570.12	2
-0.0789124	0.0162223	1574.12	2
-0.0589481	0.0160622	1578.12	2
-0.0389409	0.0157713	1582.12	2
-0.0189594	0.0154222	1586.11	2
0.00105434	0.0149563	1590.11	2
0.0210619	0.0141858	1594.11	2
0.0410608	0.0132393	1598.11	2
0.0596268	0.0121449	1601.83	3
0.0796081	0.0107419	1605.82	3
0.0996096	0.0092212	1609.82	3
0.119579	0.00771166	1613.82	3
0.139562	0.00646321	1617.82	3
0.159571	0.00560964	1621.82	3
0.179561	0.00512726	1625.82	3
0.199539	0.00487743	1629.81	3
0.219559	0.00472446	1633.81	3
0.239547	0.00459193	1637.81	3
0.259608	0.0044483	1641.83	3
0.279628	0.00432077	1645.83	3
0.299603	0.00420529	1649.82	3
0.319584	0.00410058	1653.82	3
0.339535	0.00401367	1657.82	3
0.35957	0.00394386	1661.82	3
0.379556	0.00389425	1665.82	3
0.399553	0.00386647	1669.82	3
0.419519	0.00386125	1673.81	3
0.439518	0.00387783	1677.81	3
0.441428	0.00349374	1681.61	3
0.421448	0.00299612	1685.61	3
0.401443	0.00262454	1689.61	3
0.381475	0.00231356	1693.6	3
0.361475	0.00204244	1697.6	3
0.341453	0.00179695	1701.6	3
0.321509	0.00157118	1705.6	3
0.301517	0.00135584	1709.6	3
0.281532	0.00113968	1713.6	3
0.26154	0.000905079	1717.59	3
0.241547	0.000625883	1721.59	3
0.221549	0.000268042	1725.59	3
0.201533	-0.000187597	1729.59	3
0.181548	-0.000702153	1733.59	3
0.161566	-0.00116293	1737.58	3
0.141567	-0.00149689	1741.58	3
0.12158	-0.00199266	1745.58	3
0.101611	-0.00286139	1749.58	3
0.0815948	-0.00404539	1753.58	3
0.0615964	-0.00535131	1757.57	3
0.0416068	-0.00662827	1761.57	3
0.0216299	-0.00777821	1765.57	3
0.00164362	-0.00884728	1769.57	3
-0.0183761	-0.00980971	1773.57	3
-0.0384493	-0.0102491	1777.59	3
-0.0584394	-0.0109812	1781.58	3
-0.0784387	-0.0117448	1785.58	3
-0.0984366	-0.0124843	1789.58	3
-0.118398	-0.0132068	1793.58	3
-0.138389	-0.0137756	1797.58	3
-0.158355	-0.0143348	1801.57	3
-0.17836	-0.0147157	1805.57	3
-0.198348	-0.0150421	1809.57	3
-0.218389	-0.0154758	1813.57	3
-0.238361	-0.0160183	1817.57	3
-0.258369	-0.0166799	1821.56	3
-0.278323	-0.0176202	1825.56	3
-0.298331	-0.0185162	1829.56	3
-0.318305	-0.019479	1833.56	3
-0.338296	-0.0201458	1837.56	3
-0.358286	-0.0206316	1841.56	3
-0.378291	-0.0210026	1845.55	3
-0.398257	-0.0213088	1849.55	3
-0.418259	-0.0216806	1853.55	3
-0.438247	-0.0220084	1857.55	3
-0.458232	-0.0223093	1861.55	3
-0.478241	-0.0226237	1865.54	3
-0.49824	-0.0227236	1869.54	3
-0.518186	-0.0227173	1873.54	3
-0.538189	-0.0226153	1877.54	3
-0.558168	-0.0225637	1881.54	3
-0.578143	-0.0223775	1885.54	3
-0.598165	-0.0223027	1889.53	3
-0.618188	-0.0221523	1893.53	3
-0.638159	-0.0221414	1897.53	3
-0.658144	-0.0221752	1901.53	3
-0.678145	-0.0224342	1905.53	3
-0.698144	-0.0228596	1909.52	3
-0.718096	-0.0238598	1913.52	3
-0.738094	-0.0255191	1917.52	3
-0.758071	-0.0279347	1921.52	3
-0.778041	-0.0314417	1925.52	3
-0.798034	-0.0363334	1929.51	3
-0.818054	-0.0430695	1933.51	3
-0.838048	-0.0516446	1937.51	3
-0.85802	-0.062262	1941.51	3
-0.878011	-0.072342	1945.51	3
-0.897996	-0.075231	1949.51	3
-0.918003	-0.0665027	1953.5	3
-0.937966	-0.0519646	1957.5	3
-0.957962	-0.03936	1961.5	3
-0.977961	-0.0306466	1965.5	3
-0.997947	-0.0250809	1969.5	3
-1.01793	-0.0215501	1973.49	3
-1.03793	-0.0192985	1977.49	3
-1.0579	-0.0178129	1981.49	3
-1.07792	-0.0167651	1985.49	3
-1.09793	-0.0159881	1989.49	3
-1.11794	-0.0153146	1993.48	3
-1.13789	-0.0146941	1997.48	3
-1.15787	-0.0141598	2001.48	3
-1.17787	-0.0137465	2005.48	3
-1.19786	-0.0134702	2009.48	3
-1.21783	-0.0133088	2013.48	3
-1.23782	-0.0132398	2017.47	3
-1.25782	-0.0132311	2021.47	3
-1.27781	-0.0132558	2025.47	3
-1.29782	-0.013302	2029.47	3
-1.3178	-0.0133764	2033.47	3
-1.33777	-0.0134646	2037.46	3
-1.35776	-0.0135756	2041.46	3
-1.37772	-0.0137074	2045.46	3
-1.39774	-0.0138719	2049.46	3
-1.41769	-0.0140705	2053.46	3
-1.43772	-0.0143106	2057.46	3
-1.45772	-0.0146563	2061.45	3
-1.4777	-0.0151142	2065.45	3
-1.49769	-0.0156469	2069.45	3
-1.5177	-0.0164245	2073.45	3
-1.53763	-0.0174878	2077.45	3
-1.54335	-0.0171628	2081.2	3
-1.52339	-0.0153208	2085.2	3
-1.50342	-0.0141027	2089.2	3
-1.48342	-0.0131835	2093.2	3
-1.46343	-0.0124488	2097.2	3
-1.44344	-0.0118479	2101.2	3
-1.42345	-0.0113635	2105.19	3
-1.40344	-0.0109774	2109.19	3
-1.38344	-0.0106274	2113.19	3
-1.36344	-0.0103164	2117.19	3
-1.34344	-0.0100344	2121.19	3
-1.32349	-0.0097947	2125.18	3
-1.30351	-0.00955709	2129.18	3
-1.28353	-0.00934084	2133.18	3
-1.26353	-0.00911738	2137.18	3
-1.24354	-0.00889551	2141.18	3
-1.22355	-0.00868353	2145.17	3
-1.20354	-0.00847517	2149.17	3
-1.18356	-0.00825331	2153.17	3
-1.16356	-0.00804743	2157.17	3
-1.14355	-0.00779558	2161.17	3
-1.12359	-0.00749929	2165.17	3
-1.10357	-0.00715638	2169.16	3
-1.08362	-0.00679812	2173.16	3
-1.06359	-0.00641788	2177.16	3
-1.04363	-0.00586899	2181.16	3
-1.02363	-0.00494877	2185.16	3
-1.00354	-0.00343263	2189.17	3
-0.983544	-0.000818604	2193.17	3
-0.963565	0.00380745	2197.17	3
-0.943448	0.0121216	2201.19	3
-0.923477	0.0273694	2205.19	3
-0.90352	0.0518737	2209.19	3
-0.883534	0.0784421	2213.18	3
-0.863519	0.0764812	2217.18	3
-0.843528	0.0554385	2221.18	3
-0.823524	0.0408523	2225.18	3
-0.803529	0.0306286	2229.18	3
-0.78354	0.0229666	2233.17	3
-0.763556	0.0188347	2237.17	3
-0.743546	0.0164402	2241.17	3
-0.723549	0.0153302	2245.17	3
-0.703609	0.0148419	2249.17	3
-0.683637	0.0148877	2253.16	3
-0.663616	0.0152542	2257.16	3
-0.643643	0.0155494	2261.16	3
-0.623641	0.0158786	2265.16	3
-0.603641	0.0164788	2269.16	3
-0.583662	0.0170499	2273.16	3
-0.563665	0.0176959	2277.15	3
-0.543679	0.0183959	2281.15	3
-0.52371	0.0189797	2285.15	3
-0.503722	0.0194514	2289.15	3
-0.483748	0.0195248	2293.15	3
-0.463738	0.0196081	2297.14	3
-0.443731	0.0197101	2301.14	3
-0.423759	0.0197364	2305.14	3
-0.40378	0.0197687	2309.14	3
-0.383762	0.0199113	2313.14	3
-0.363794	0.0199636	2317.13	3
-0.343771	0.0200033	2321.13	3
-0.323809	0.0197659	2325.13	3
-0.303829	0.0192298	2329.13	3
-0.283827	0.0188028	2333.13	3
-0.263856	0.0183502	2337.13	3
-0.243853	0.0181242	2341.12	3
-0.22387	0.0178715	2345.12	3
-0.203852	0.0177241	2349.12	3
-0.183839	0.0174339	2353.12	3
-0.163834	0.01713	2357.12	3
-0.143877	0.0168615	2361.11	3
-0.123859	0.0166831	2365.11	3
-0.103869	0.0163665	2369.11	3
-0.0838813	0.0161605	2373.11	3
-0.0639051	0.015893	2377.11	3
-0.0439154	0.0157026	2381.11	3
-0.0239296	0.0153292	2385.1	3
-0.00393181	0.0148382	2389.1	3
0.016051	0.0140584	2393.1	3
0.0360484	0.0131246	2397.1	3
0.0546367	0.0120091	2400.82	4
0.0746336	0.0106529	2404.81	4
0.0946248	0.00912855	2408.81	4
0.1146	0.00763317	2412.81	4
0.134586	0.00634325	2416.81	4
0.154579	0.00541335	2420.81	4
0.174581	0.0048585	2424.8	4
0.194588	0.00456643	2428.8	4
0.214682	0.00439075	2432.82	4
0.234666	0.00426583	2436.82	4
0.254633	0.0041503	2440.82	4
0.274652	0.00403677	2444.82	4
0.294626	0.00393497	2448.81	4
0.314582	0.00384662	2452.81	4
0.334594	0.00377529	2456.81	4
0.354575	0.00371742	2460.81	4
0.374581	0.00367947	2464.81	4
0.394555	0.00365634	2468.8	4
0.414555	0.00365281	2472.8	4
0.434559	0.00366444	2476.8	4
0.446441	0.00347465	2480.6	4
0.426444	0.00294079	2484.6	4
0.406439	0.00257007	2488.6	4
0.386468	0.00226526	2492.59	4
0.366473	0.00200249	2496.59	4
0.346473	0.00176831	2500.59	4
0.32648	0.00155531	2504.59	4
0.306553	0.00135214	2508.59	4
0.286544	0.00115082	2512.58	4
0.266556	0.000937721	2516.58	4
0.246559	0.000694142	2520.58	4
0.226578	0.000390414	2524.58	4
0.206563	-3.29106e-06	2528.58	4
0.186575	-0.000472095	2532.58	4
0.166573	-0.000938944	2536.57	4
0.146588	-0.00129257	2540.57	4
0.126578	-0.00172351	2544.57	4
0.10657	-0.00249514	2548.57	4
0.0866121	-0.00361075	2552.57	4
0.0666309	-0.00486128	2556.56	4
0.0466339	-0.0061886	2560.56	4
0.0266155	-0.00736846	2564.56	4
0.00664122	-0.0084991	2568.56	4
-0.0133657	-0.00944465	2572.56	4
-0.0333748	-0.0103117	2576.55	4
-0.0534527	-0.0106926	2580.57	4
-0.0734553	-0.0114994	2584.57	4
-0.0934351	-0.0122162	2588.57	4
-0.113399	-0.0129027	2592.57	4
-0.133407	-0.0135303	2596.57	4
-0.153386	-0.0141103	2600.56	4
-0.173402	-0.0144117	2604.56	4
-0.193387	-0.0148513	2608.56	4
-0.213391	-0.015221	2612.56	4
-0.233381	-0.0156763	2616.56	4
-0.25339	-0.0162713	2620.55	4
-0.273363	-0.0171386	2624.55	4
-0.293377	-0.0180432	2628.55	4
-0.313294	-0.0188781	2632.55	4
-0.333293	-0.019564	2636.55	4
-0.353288	-0.0201732	2640.54	4
-0.373297	-0.0205448	2644.54	4
-0.393266	-0.0209643	2648.54	4
-0.413292	-0.0213309	2652.54	4
-0.433272	-0.0216806	2656.54	4
-0.453255	-0.0220985	2660.54	4
-0.473245	-0.022303	2664.53	4
-0.493248	-0.0223015	2668.53	4
-0.513193	-0.0223522	2672.53	4
-0.533191	-0.022219	2676.53	4
-0.553166	-0.0221617	2680.53	4
-0.573169	-0.0219888	2684.52	4
-0.593159	-0.0219274	2688.52	4
-0.613166	-0.0218594	2692.52	4
-0.633182	-0.0216249	2696.52	4
-0.653164	-0.0215595	2700.52	4
-0.673157	-0.0217611	2704.52	4
-0.693134	-0.0221709	2708.51	4
-0.71314	-0.0230602	2712.51	4
-0.733099	-0.0245171	2716.51	4
-0.753066	-0.0268757	2720.51	4
-0.773076	-0.0301269	2724.51	4
-0.79307	-0.0346359	2728.5	4
-0.813053	-0.0407106	2732.5	4
-0.83307	-0.0491554	2736.5	4
-0.853025	-0.0591942	2740.5	4
-0.873022	-0.0696871	2744.5	4
-0.893016	-0.0746115	2748.49	4
-0.913039	-0.0679375	2752.49	4
-0.932985	-0.053895	2756.49	4
-0.952965	-0.0408524	2760.49	4
-0.972961	-0.0315102	2764.49	4
-0.992958	-0.0254771	2768.49	4
-1.01297	-0.0216176	2772.48	4
-1.03296	-0.0191271	2776.48	4
-1.05293	-0.0175082	2780.48	4
-1.07295	-0.0163838	2784.48	4
-1.09295	-0.0155726	2788.48	4
-1.11294	-0.0148989	2792.47	4
-1.1329	-0.0142914	2796.47	4
-1.15289	-0.0137509	2800.47	4
-1.17286	-0.013315	2804.47	4
-1.19286	-0.0130195	2808.47	4
-1.21285	-0.0128318	2812.46	4
-1.23286	-0.0127346	2816.46	4
-1.25281	-0.0127043	2820.46	4
-1.27284	-0.012725	2824.46	4
-1.29282	-0.0127623	2828.46	4
-1.3128	-0.0128298	2832.46	4
-1.33277	-0.0129135	2836.45	4
-1.35275	-0.0130149	2840.45	4
-1.37274	-0.0131392	2844.45	4
-1.39275	-0.0132842	2848.45	4
-1.4127	-0.0134605	2852.45	4
-1.43274	-0.0136757	2856.44	4
-1.45272	-0.0139833	2860.44	4
-1.47273	-0.0143681	2864.44	4
-1.4927	-0.0148826	2868.44	4
-1.51269	-0.015486	2872.44	4
-1.53267	-0.0164461	2876.44	4
-1.54835	-0.0169823	2880.19	4
-1.5284	-0.0149627	2884.19	4
-1.5084	-0.0137171	2888.19	4
-1.48842	-0.012786	2892.19	4
-1.46841	-0.0120637	2896.19	4
-1.44842	-0.0114738	2900.18	4
-1.42842	-0.0109925	2904.18	4
-1.40842	-0.0105887	2908.18	4
-1.38841	-0.0102527	2912.18	4
-1.36842	-0.00996504	2916.18	4
-1.34845	-0.00968742	2920.18	4
-1.32849	-0.00945351	2924.17	4
-1.30849	-0.00922183	2928.17	4
-1.28849	-0.00900246	2932.17	4
-1.26851	-0.00878278	2936.17	4
-1.24854	-0.00856762	2940.17	4
-4.49923	-0.000134337	2944.14	4