File: test_trajectories/cyclic_voltammetry/biologic5.txt
Ewe/V	<I>/mA	time/s	cycle number
-0.0868448	0.00371035	4.5492	1
-0.0628412	0.00363582	9.3483	1
-0.0388363	0.00324392	14.1474	1
-0.0149118	0.00288778	18.9464	1
0.0090894	0.00265566	23.7456	1
0.0331481	0.0025409	28.5446	1
0.0571225	0.00248161	33.3437	1
0.0811296	0.00247636	38.1428	1
0.105098	0.00251439	42.9418	1
0.129142	0.00256388	47.741	1
0.153145	0.00264269	52.54	1
0.177093	0.00274212	57.339	1
0.201147	0.00286404	62.1382	1
0.225122	0.00302449	66.9372	1
0.249102	0.00322298	71.7364	1
0.273103	0.00348616	76.5354	1
0.297064	0.00383452	81.3344	1
0.321051	0.00428469	86.1336	1
0.33663	0.0041286	90.6732	1
0.312659	0.00276108	95.4723	1
0.288671	0.00194629	100.271	1
0.264699	0.00132395	105.07	1
0.240683	0.000852132	109.87	1
0.21675	0.000482158	114.669	1
0.192745	0.000178608	119.468	1
0.168755	-7.5857e-05	124.267	1
0.144729	-0.000279095	129.066	1
0.12075	-0.000431802	133.865	1
0.0967251	-0.000565315	138.664	1
0.0727455	-0.000677816	143.463	1
0.048747	-0.000769475	148.262	1
0.0247654	-0.000882066	153.061	1
0.000770814	-0.00103329	157.86	1
-0.0232295	-0.00127975	162.659	1
-0.0472354	-0.00168917	167.458	1
-0.0712308	-0.00247251	172.258	1
-0.0952192	-0.00387862	177.057	1
-0.119181	-0.00602536	181.856	1
-0.14315	-0.00852193	186.655	1
-0.167102	-0.0100647	191.454	1
-0.191294	-0.0103964	196.273	1
-0.215309	-0.0108737	201.072	1
-0.239261	-0.0114465	205.871	1
-0.263281	-0.0120237	210.67	1
-0.287272	-0.0127373	215.469	1
-0.311265	-0.0139629	220.268	1
-0.33525	-0.0149717	225.067	1
-0.359254	-0.0166579	229.867	1
-0.383263	-0.0179427	234.666	1
-0.407247	-0.0198969	239.465	1
-0.431229	-0.0215726	244.264	1
-0.455276	-0.0239794	249.063	1
-0.479247	-0.0260682	253.862	1
-0.503301	-0.0280676	258.661	1
-0.527242	-0.0293583	263.46	1
-0.55124	-0.0300589	268.259	1
-0.575228	-0.0302209	273.058	1
-0.599232	-0.0298256	277.857	1
-0.623243	-0.029734	282.656	1
-0.647204	-0.0298265	287.455	1
-0.671196	-0.0293069	292.255	1
-0.695205	-0.0292581	297.054	1
-0.719163	-0.0288488	301.853	1
-0.743211	-0.0287313	306.652	1
-0.767224	-0.0290449	311.451	1
-0.791184	-0.0294345	316.25	1
-0.81519	-0.0309689	321.049	1
-0.839166	-0.0331078	325.848	1
-0.863211	-0.0347472	330.647	1
-0.887179	-0.0368928	335.446	1
-0.911157	-0.0394277	340.245	1
-0.935117	-0.0438516	345.044	1
-0.959128	-0.0497805	349.844	1
-0.983071	-0.0580509	354.643	1
-1.00709	-0.0671757	359.442	1
-1.03108	-0.0730111	364.241	1
-1.05505	-0.07064	369.04	1
-1.07906	-0.0612197	373.839	1
-1.10302	-0.0502777	378.638	1
-1.12705	-0.0414947	383.437	1
-1.15108	-0.035407	388.236	1
-1.1751	-0.0311976	393.035	1
-1.19904	-0.0279722	397.834	1
-1.22305	-0.0254309	402.633	1
-1.24712	-0.0238872	407.432	1
-1.27109	-0.0229219	412.232	1
-1.29507	-0.0223619	417.031	1
-1.31905	-0.0219724	421.83	1
-1.33816	-0.0211071	426.269	1
-1.31419	-0.018149	431.068	1
-1.29012	-0.016581	435.868	1
-1.26614	-0.0154395	440.667	1
-1.2422	-0.0144293	445.466	1
-1.21818	-0.013492	450.265	1
-1.19421	-0.012469	455.064	1
-1.1702	-0.0112383	459.863	1
-1.14619	-0.00940714	464.662	1
-1.12222	-0.00635009	469.461	1
-1.0981	-0.00084464	474.28	1
-1.0742	0.00970314	479.079	1
-1.05008	0.0292687	483.898	1
-1.02607	0.0581463	488.697	1
-1.0021	0.0605912	493.496	1
-0.978042	0.0366702	498.296	1
-0.954039	0.0274257	503.095	1
-0.930055	0.0215835	507.894	1
-0.906069	0.017855	512.693	1
-0.88203	0.0162594	517.492	1
-0.858048	0.0159575	522.291	1
-0.834084	0.0159785	527.09	1
-0.810052	0.0165987	531.889	1
-0.786064	0.017542	536.688	1
-0.762093	0.0182729	541.487	1
-0.738096	0.0191738	546.286	1
-0.714115	0.0200219	551.085	1
-0.6901	0.0210737	555.885	1
-0.666101	0.0230156	560.684	1
-0.642135	0.0248426	565.483	1
-0.618098	0.0259834	570.282	1
-0.594099	0.0255049	575.081	1
-0.57013	0.025805	579.88	1
-0.546137	0.0266822	584.679	1
-0.522156	0.0272276	589.478	1
-0.49817	0.0269587	594.277	1
-0.474165	0.0261175	599.076	1
-0.450133	0.0248456	603.875	1
-0.426164	0.0240651	608.674	1
-0.402114	0.0234416	613.473	1
-0.378138	0.0228219	618.273	1
-0.354204	0.0216831	623.072	1
-0.330166	0.0197419	627.871	1
-0.306223	0.0184429	632.67	1
-0.282187	0.017599	637.469	1
-0.258203	0.0173342	642.268	1
-0.234219	0.0172202	647.067	1
-0.210222	0.0169585	651.866	1
-0.186217	0.0166093	656.665	1
-0.162191	0.0162928	661.464	1
-0.138168	0.0158349	666.263	1
-0.114181	0.0149012	671.062	1
-0.0919206	0.0136067	675.522	2
-0.067927	0.0120298	680.321	2
-0.0439529	0.0104819	685.12	2
-0.0199328	0.0092644	689.919	2
0.00410721	0.00843917	694.718	2
0.0280139	0.00793769	699.517	2
0.0520631	0.0076482	704.316	2
0.0760809	0.00745917	709.115	2
0.100068	0.00731876	713.914	2
0.124085	0.00719529	718.713	2
0.148063	0.00703996	723.512	2
0.172004	0.00691146	728.311	2
0.195981	0.00679466	733.111	2
0.220056	0.00670451	737.91	2
0.244042	0.00666994	742.709	2
0.268052	0.00664961	747.508	2
0.29203	0.00673089	752.307	2
0.316013	0.00683605	757.106	2
0.339841	0.00711115	761.875	2
0.317751	0.00513334	766.465	2
0.293592	0.00401885	771.284	2
0.269593	0.00317972	776.083	2
0.245618	0.00249991	780.882	2
0.221635	0.00192166	785.681	2
0.197623	0.00145278	790.48	2
0.173633	0.00106214	795.279	2
0.149669	0.000720641	800.078	2
0.12566	0.00042546	804.877	2
0.101652	0.000172421	809.676	2
0.0777006	-6.85887e-05	814.475	2
0.0536957	-0.000270694	819.275	2
0.0296845	-0.000473046	824.074	2
0.00567468	-0.000716945	828.873	2
-0.0183178	-0.00102297	833.672	2
-0.0422822	-0.00154133	838.471	2
-0.0662783	-0.00244959	843.27	2
-0.0902618	-0.00399626	848.069	2
-0.114246	-0.00630364	852.868	2
-0.138163	-0.00880212	857.667	2
-0.162202	-0.0102111	862.466	2
-0.186362	-0.0104532	867.285	2
-0.210407	-0.0109904	872.084	2
-0.234362	-0.0116859	876.884	2
-0.258371	-0.0122709	881.683	2
-0.282408	-0.0131008	886.482	2
-0.306382	-0.0141195	891.281	2
-0.330357	-0.0150124	896.08	2
-0.354369	-0.0162057	900.879	2
-0.378357	-0.0172957	905.678	2
-0.402347	-0.0187291	910.477	2
-0.426337	-0.0204122	915.276	2
-0.450315	-0.0223312	920.075	2
-0.474332	-0.0245538	924.874	2
-0.498314	-0.0263401	929.673	2
-0.522257	-0.0277461	934.472	2
-0.546276	-0.0288356	939.272	2
-0.570295	-0.0293143	944.071	2
-0.594261	-0.0288909	948.87	2
-0.618302	-0.0286618	953.669	2
-0.642302	-0.0285004	958.468	2
-0.66626	-0.0283553	963.267	2
-0.690291	-0.0281318	968.066	2
-0.714304	-0.0276484	972.865	2
-0.738264	-0.0271955	977.664	2
-0.762277	-0.0272158	982.463	2
-0.786277	-0.0278091	987.262	2
-0.810291	-0.0292088	992.061	2
-0.834312	-0.0311805	996.861	2
-0.858282	-0.0331478	1001.66	2
-0.882255	-0.0348867	1006.46	2
-0.90624	-0.0372009	1011.26	2
-0.930256	-0.0409467	1016.06	2
-0.954154	-0.0460402	1020.86	2
-0.978194	-0.0535653	1025.65	2
-1.00217	-0.0620756	1030.45	2
-1.02617	-0.0689535	1035.25	2
-1.05016	-0.0688596	1040.05	2
-1.07413	-0.0609976	1044.85	2
-1.09814	-0.0503827	1049.65	2
-1.12215	-0.0411212	1054.45	2
-1.14614	-0.034513	1059.25	2
-1.17016	-0.0299649	1064.05	2
-1.19413	-0.0266119	1068.85	2
-1.21819	-0.0239045	1073.65	2
-1.24214	-0.0220352	1078.44	2
-1.26611	-0.0208569	1083.24	2
-1.29013	-0.0201253	1088.04	2
-1.31413	-0.0196065	1092.84	2
-1.33813	-0.0192577	1097.64	2
-1.31811	-0.0160539	1102.26	2
-1.29407	-0.0144912	1107.06	2
-1.27017	-0.0133432	1111.86	2
-1.24614	-0.0124237	1116.66	2
-1.22216	-0.0115294	1121.46	2
-1.19816	-0.0105945	1126.26	2
-1.17417	-0.00935766	1131.06	2
-1.15018	-0.00756656	1135.85	2
-1.12611	-0.00451422	1140.66	2
-1.10211	0.000961677	1145.47	2
-1.07797	0.0115541	1150.29	2
-1.05402	0.030604	1155.09	2
-1.03003	0.0579692	1159.89	2
-1.00602	0.0583352	1164.69	2
-0.982042	0.0379199	1169.49	2
-0.958036	0.0289754	1174.29	2
-0.934051	0.0228033	1179.09	2
-0.910075	0.019012	1183.89	2
-0.886038	0.0166849	1188.68	2
-0.862085	0.0160021	1193.48	2
-0.838052	0.0161638	1198.28	2
-0.814061	0.0166786	1203.08	2
-0.790053	0.0173692	1207.88	2
-0.766064	0.0181344	1212.68	2
-0.742016	0.0188873	1217.48	2
-0.718061	0.0197639	1222.28	2
-0.694071	0.0207102	1227.08	2
-0.670059	0.0222878	1231.88	2
-0.646101	0.0238673	1236.68	2
-0.622101	0.0249471	1241.47	2
-0.598088	0.0247997	1246.27	2
-0.574091	0.0251778	1251.07	2
-0.55008	0.0259061	1255.87	2
-0.526109	0.0267636	1260.67	2
-0.502143	0.0267571	1265.47	2
-0.478135	0.0255963	1270.27	2
-0.454109	0.0243272	1275.07	2
-0.430126	0.0230135	1279.87	2
-0.40613	0.0222963	1284.67	2
-0.382135	0.0220795	1289.46	2
-0.358141	0.0212581	1294.26	2
-0.334123	0.0202885	1299.06	2
-0.310178	0.0189927	1303.86	2
-0.286188	0.0179149	1308.66	2
-0.262159	0.0171741	1313.46	2
-0.238177	0.0167984	1318.26	2
-0.214213	0.0166048	1323.06	2
-0.190179	0.0165112	1327.86	2
-0.166187	0.0161326	1332.66	2
-0.142225	0.0154916	1337.46	2
-0.11819	0.0144251	1342.25	2
-0.0958566	0.0131278	1346.71	3
-0.0718818	0.0115283	1351.51	3
-0.0479015	0.00996653	1356.31	3
-0.0239177	0.00869555	1361.11	3
4.02201e-05	0.00780001	1365.91	3
0.0240186	0.00723259	1370.71	3
0.0480482	0.0069025	1375.51	3
0.0721158	0.00672063	1380.31	3
0.0961008	0.00660437	1385.11	3
0.120037	0.00652769	1389.91	3
0.144018	0.00645076	1394.7	3
0.168006	0.00637611	1399.5	3
0.192112	0.00630495	1404.3	3
0.216071	0.00625131	1409.1	3
0.24007	0.0062253	1413.9	3
0.264043	0.00624963	1418.7	3
0.287988	0.00632611	1423.5	3
0.31196	0.00648106	1428.3	3
0.335976	0.00672997	1433.1	3
0.321736	0.00514314	1437.66	3
0.297471	0.00403618	1442.5	3
0.273503	0.00324385	1447.3	3
0.249501	0.00258361	1452.09	3
0.225503	0.00204363	1456.89	3
0.201486	0.00157036	1461.69	3
0.177538	0.00115173	1466.49	3
0.153547	0.000794822	1471.29	3
0.129531	0.000486725	1476.09	3
0.105546	0.000202708	1480.89	3
0.0815722	-3.6256e-05	1485.69	3
0.0575721	-0.000253979	1490.49	3
0.0335726	-0.000464803	1495.29	3
0.00958104	-0.000713634	1500.08	3
-0.014446	-0.00103333	1504.88	3
-0.0383812	-0.00149567	1509.68	3
-0.0623846	-0.0023277	1514.48	3
-0.0863779	-0.00376342	1519.28	3
-0.110335	-0.00591909	1524.08	3
-0.134279	-0.00840385	1528.88	3
-0.158288	-0.00995909	1533.68	3
-0.182497	-0.010464	1538.5	3
-0.206499	-0.010989	1543.3	3
-0.230507	-0.011593	1548.1	3
-0.254489	-0.0121368	1552.89	3
-0.278505	-0.0128854	1557.69	3
-0.302475	-0.0136479	1562.49	3
-0.326485	-0.014364	1567.29	3
-0.350442	-0.0154683	1572.09	3
-0.374467	-0.0167543	1576.89	3
-0.398458	-0.0181431	1581.69	3
-0.422414	-0.0198591	1586.49	3
-0.446435	-0.0218346	1591.29	3
-0.470413	-0.0235667	1596.09	3
-0.494453	-0.0256603	1600.89	3
-0.518414	-0.0271782	1605.68	3
-0.542428	-0.0278795	1610.48	3
-0.566404	-0.0282181	1615.28	3
-0.590421	-0.0280739	1620.08	3
-0.614386	-0.0278655	1624.88	3
-0.638368	-0.0276327	1629.68	3
-0.662392	-0.0273331	1634.48	3
-0.686387	-0.0270757	1639.28	3
-0.710362	-0.0263818	1644.08	3
-0.734412	-0.0259895	1648.88	3
-0.758341	-0.0256618	1653.68	3
-0.782374	-0.0260417	1658.47	3
-0.806377	-0.02724	1663.27	3
-0.830406	-0.0291442	1668.07	3
-0.854387	-0.0310493	1672.87	3
-0.878358	-0.0331938	1677.67	3
-0.902377	-0.0354625	1682.47	3
-0.926302	-0.0386284	1687.27	3
-0.950317	-0.0434124	1692.07	3
-0.974279	-0.050104	1696.87	3
-0.998289	-0.0584926	1701.67	3
-1.02228	-0.0655012	1706.47	3
-1.04626	-0.0667748	1711.26	3
-1.07027	-0.0604785	1716.06	3
-1.09427	-0.0502959	1720.86	3
-1.11825	-0.0407992	1725.66	3
-1.14227	-0.0338337	1730.46	3
-1.16625	-0.0290223	1735.26	3
-1.19019	-0.0255393	1740.06	3
-1.21424	-0.0227406	1744.86	3
-1.23824	-0.0207239	1749.66	3
-1.26221	-0.0194165	1754.46	3
-1.28624	-0.018588	1759.26	3
-1.31021	-0.018012	1764.05	3
-1.3342	-0.0176016	1768.85	3
-1.32214	-0.0147556	1773.45	3
-1.29815	-0.0131354	1778.25	3
-1.27414	-0.0120293	1783.05	3
-1.25013	-0.0111419	1787.85	3
-1.22614	-0.0103212	1792.65	3
-1.20213	-0.00943739	1797.45	3
-1.17818	-0.00828839	1802.25	3
-1.15421	-0.00657467	1807.05	3
-1.12997	-0.00366871	1811.89	3
-1.10598	0.00161455	1816.68	3
-1.08185	0.0116941	1821.5	3
-1.05787	0.0299114	1826.3	3
-1.03394	0.0561315	1831.1	3
-1.00996	0.0587976	1835.9	3
-0.985886	0.0396155	1840.7	3
-0.961917	0.0305091	1845.5	3
-0.937949	0.0238422	1850.3	3
-0.913949	0.0197334	1855.1	3
-0.889951	0.0173174	1859.9	3
-0.86597	0.0159544	1864.7	3
-0.841978	0.0160961	1869.49	3
-0.817951	0.0163422	1874.29	3
-0.793933	0.0170682	1879.09	3
-0.769969	0.0178237	1883.89	3
-0.74593	0.0188656	1888.69	3
-0.721975	0.019497	1893.49	3
-0.69796	0.0207555	1898.29	3
-0.673987	0.0220113	1903.09	3
-0.649993	0.0237346	1907.89	3
-0.626015	0.0245988	1912.69	3
-0.602016	0.0246961	1917.49	3
-0.578032	0.0248058	1922.28	3
-0.554048	0.0252067	1927.08	3
-0.530044	0.0257187	1931.88	3
-0.506075	0.0260033	1936.68	3
-0.48208	0.0251554	1941.48	3
-0.458066	0.0236266	1946.28	3
-0.434034	0.0223557	1951.08	3
-0.410035	0.021647	1955.88	3
-0.38607	0.0213445	1960.68	3
-0.362077	0.0210038	1965.48	3
-0.33807	0.0202438	1970.28	3
-0.314102	0.019216	1975.07	3
-0.290084	0.0181621	1979.87	3
-0.266084	0.0172722	1984.67	3
-0.242101	0.0167888	1989.47	3
-0.21809	0.0165673	1994.27	3
-0.194068	0.0161703	1999.07	3
-0.170109	0.0158583	2003.87	3
-0.146086	0.0150942	2008.67	3
-0.122111	0.0140436	2013.47	3
-0.0998889	0.0127125	2017.91	4
-0.075886	0.0110965	2022.71	4
-0.0519023	0.00950867	2027.5	4
-0.027903	0.00821583	2032.3	4
-0.00399686	0.00726953	2037.1	4
0.020025	0.00665343	2041.9	4
0.0440221	0.00624247	2046.7	4
0.0680678	0.00598328	2051.5	4
0.0920611	0.00577396	2056.3	4
0.116089	0.00564225	2061.1	4
0.140013	0.00553473	2065.9	4
0.164002	0.00543936	2070.7	4
0.188083	0.00541555	2075.5	4
0.212111	0.00542096	2080.29	4
0.236063	0.00545517	2085.09	4
0.260006	0.00552115	2089.89	4
0.284041	0.00563753	2094.69	4
0.308081	0.00585499	2099.49	4
0.332072	0.00613989	2104.29	4
0.325736	0.00491242	2108.85	4
0.301626	0.00384464	2113.67	4
0.277635	0.00309228	2118.47	4
0.253632	0.00248118	2123.27	4
0.22962	0.00197348	2128.07	4
0.205634	0.00153583	2132.86	4
0.181607	0.00114538	2137.66	4
0.157673	0.000797095	2142.46	4
0.133668	0.000482504	2147.26	4
0.109661	0.000198275	2152.06	4
0.0856522	-5.20975e-05	2156.86	4
0.0616822	-0.000290741	2161.66	4
0.0376909	-0.000525965	2166.46	4
0.0137313	-0.000771547	2171.26	4
-0.0102936	-0.00107908	2176.06	4
-0.0343092	-0.00152095	2180.86	4
-0.0582925	-0.00225298	2185.65	4
-0.0822748	-0.00351883	2190.45	4
-0.106226	-0.00551022	2195.25	4
-0.130193	-0.0079956	2200.05	4
-0.154149	-0.00977221	2204.85	4
-0.178387	-0.0103934	2209.67	4
-0.202379	-0.0109048	2214.47	4
-0.226405	-0.0114937	2219.27	4
-0.250365	-0.012102	2224.07	4
-0.274388	-0.0127296	2228.87	4
-0.298409	-0.0136409	2233.67	4
-0.322406	-0.0145706	2238.46	4
-0.346345	-0.0157072	2243.26	4
-0.370349	-0.0166096	2248.06	4
-0.394353	-0.0179428	2252.86	4
-0.418331	-0.0192997	2257.66	4
-0.442327	-0.0209382	2262.46	4
-0.466348	-0.0227331	2267.26	4
-0.49032	-0.0247809	2272.06	4
-0.514328	-0.0261067	2276.86	4
-0.538335	-0.0271623	2281.66	4
-0.562303	-0.0276095	2286.46	4
-0.586314	-0.0277879	2291.25	4
-0.610316	-0.027128	2296.05	4
-0.63432	-0.0272508	2300.85	4
-0.658288	-0.0268313	2305.65	4
-0.682298	-0.0262636	2310.45	4
-0.706285	-0.0255063	2315.25	4
-0.730269	-0.0252704	2320.05	4
-0.754279	-0.0249594	2324.85	4
-0.778271	-0.0251603	2329.65	4
-0.802285	-0.0262196	2334.45	4
-0.826306	-0.0280242	2339.24	4
-0.850315	-0.0299391	2344.04	4
-0.874284	-0.0316615	2348.84	4
-0.898257	-0.0337847	2353.64	4
-0.922251	-0.0367647	2358.44	4
-0.946254	-0.0412715	2363.24	4
-0.97022	-0.0476505	2368.04	4
-0.994193	-0.0552502	2372.84	4
-1.0182	-0.0631401	2377.64	4
-1.04219	-0.0655776	2382.44	4
-1.06619	-0.0606737	2387.24	4
-1.09018	-0.0509993	2392.03	4
-1.11416	-0.0414429	2396.83	4
-1.13814	-0.0340843	2401.63	4
-1.16218	-0.0290431	2406.43	4
-1.18615	-0.0254109	2411.23	4
-1.21018	-0.0225399	2416.03	4
-1.23415	-0.0203488	2420.83	4
-1.25817	-0.018937	2425.63	4
-1.28217	-0.0179802	2430.43	4
-1.30613	-0.0173533	2435.23	4
-1.33015	-0.0168827	2440.03	4
-1.3261	-0.0143964	2444.65	4
-1.30215	-0.0126976	2449.44	4
-1.27816	-0.0116008	2454.24	4
-1.25418	-0.0107172	2459.04	4
-1.23012	-0.00993768	2463.84	4
-1.20613	-0.0090839	2468.64	4
-1.18216	-0.00798102	2473.44	4
-1.15817	-0.00635051	2478.24	4
-1.13397	-0.00361994	2483.08	4
-1.11004	0.00132199	2487.88	4
-1.08586	0.0107965	2492.7	4
-1.06191	0.0276964	2497.5	4
-1.03792	0.0527745	2502.29	4
-1.01397	0.0591705	2507.09	4
-0.989916	0.0407008	2511.89	4
-0.965945	0.03154	2516.69	4
-0.941967	0.0247747	2521.49	4
-0.917936	0.0204472	2526.29	4
-0.89394	0.0176415	2531.09	4
-0.869936	0.0161277	2535.89	4
-0.845987	0.0157907	2540.69	4
-0.821968	0.0160155	2545.49	4
-0.797973	0.0162632	2550.28	4
-0.773938	0.0175085	2555.08	4
-0.74998	0.0180185	2559.88	4
-0.725964	0.0188694	2564.68	4
-0.701966	0.0198857	2569.48	4
-0.678003	0.0210132	2574.28	4
-0.654022	0.0227655	2579.08	4
-0.630062	0.0236047	2583.88	4
-0.606026	0.0237375	2588.68	4
-0.582013	0.0237098	2593.48	4
-0.558027	0.0243751	2598.28	4
-0.534014	0.0251478	2603.07	4
-0.510053	0.0252319	2607.87	4
-0.486007	0.0248977	2612.67	4
-0.46203	0.0233384	2617.47	4
-0.438049	0.0219885	2622.27	4
-0.414043	0.0213734	2627.07	4
-0.390025	0.0210125	2631.87	4
-0.366036	0.0208405	2636.67	4
-0.342032	0.0203031	2641.47	4
-0.318076	0.0193522	2646.27	4
-0.294072	0.0183755	2651.07	4
-0.270093	0.0172014	2655.86	4
-0.246089	0.016675	2660.66	4
-0.222128	0.0162745	2665.46	4
-0.198105	0.0160189	2670.26	4
-0.174105	0.0154662	2675.06	4
-0.150092	0.0148027	2679.86	4
-0.126075	0.0137246	2684.66	4
-0.103909	0.0123702	2689.1	5
-0.0798994	0.0107573	2693.9	5
-0.0559475	0.00918617	2698.7	5
-0.0319009	0.00788243	2703.5	5
-0.00789762	0.00692712	2708.29	5
0.0160123	0.00628958	2713.09	5
0.0400992	0.00589502	2717.89	5
0.0641235	0.0056018	2722.69	5
0.0880692	0.00539632	2727.49	5
0.112053	0.00526963	2732.29	5
0.136104	0.0051837	2737.09	5
0.160116	0.0051324	2741.89	5
0.184081	0.00511813	2746.69	5
0.208125	0.00511938	2751.49	5
0.232067	0.00515872	2756.29	5
0.256004	0.00525431	2761.08	5
0.280113	0.0053915	2765.88	5
0.303993	0.00556548	2770.68	5
0.328085	0.00585641	2775.48	5
0.329757	0.00494575	2780.04	5
0.305588	0.00386084	2784.86	5
0.281648	0.00312425	2789.66	5
0.257652	0.00252961	2794.46	5
0.233628	0.00202664	2799.26	5
0.209633	0.00158175	2804.06	5
0.185654	0.0012041	2808.86	5
0.16166	0.000848482	2813.65	5
0.137638	0.000533275	2818.45	5
0.113624	0.000248711	2823.25	5
0.0896679	-2.09502e-05	2828.05	5
0.0656561	-0.000268496	2832.85	5
0.0416993	-0.000502089	2837.65	5
0.0176902	-0.000742161	2842.45	5
-0.00634798	-0.00104614	2847.25	5
-0.0303077	-0.00144554	2852.05	5
-0.054279	-0.00208682	2856.85	5
-0.0782776	-0.00322328	2861.65	5
-0.102258	-0.00505792	2866.44	5
-0.12624	-0.00747886	2871.24	5
-0.150237	-0.00951502	2876.04	5
-0.174329	-0.0104724	2880.85	5
-0.198419	-0.0107134	2885.66	5
-0.222376	-0.0111904	2890.46	5
-0.246404	-0.0119526	2895.26	5
-0.27038	-0.0126817	2900.06	5
-0.294361	-0.0134734	2904.86	5
-0.31838	-0.0144277	2909.66	5
-0.342372	-0.0154347	2914.46	5
-0.366397	-0.0163323	2919.25	5
-0.390353	-0.0173836	2924.05	5
-0.414397	-0.0189749	2928.85	5
-0.438346	-0.0206007	2933.65	5
-0.46233	-0.0221497	2938.45	5
-0.486336	-0.0242433	2943.25	5
-0.510339	-0.0258349	2948.05	5
-0.534329	-0.0267132	2952.85	5
-0.558327	-0.027371	2957.65	5
-0.582351	-0.0275172	2962.45	5
-0.606324	-0.0269874	2967.25	5
-0.630326	-0.0267497	2972.04	5
-0.654298	-0.026297	2976.84	5
-0.678301	-0.0258694	2981.64	5
-0.702286	-0.0250972	2986.44	5
-0.72629	-0.0247827	2991.24	5
-0.750297	-0.0245776	2996.04	5
-0.774262	-0.0245283	3000.84	5
-0.798236	-0.0252968	3005.64	5
-0.822294	-0.0271195	3010.44	5
-0.846286	-0.0290395	3015.24	5
-0.870277	-0.0309956	3020.04	5
-0.894278	-0.0330414	3024.83	5
-0.918293	-0.0360183	3029.63	5
-0.942232	-0.0397721	3034.43	5
-0.96622	-0.0455896	3039.23	5
-0.990214	-0.0531721	3044.03	5
-1.0142	-0.0606561	3048.83	5
-1.03818	-0.0648914	3053.63	5
-1.06214	-0.0609458	3058.43	5
-1.08615	-0.0520389	3063.23	5
-1.1102	-0.0424404	3068.03	5
-1.13419	-0.0348498	3072.83	5
-1.15815	-0.0295366	3077.62	5
-1.18217	-0.0257855	3082.42	5
-1.20615	-0.0228519	3087.22	5
-1.23017	-0.0205334	3092.02	5
-1.25414	-0.0189812	3096.82	5
-1.27811	-0.0179526	3101.62	5
-1.3021	-0.0172878	3106.42	5
-1.32614	-0.0167665	3111.22	5
-1.33014	-0.0146615	3115.84	5
-1.30618	-0.0127753	3120.64	5
-1.28216	-0.0116214	3125.44	5
-1.25818	-0.010726	3130.23	5
-1.23419	-0.00994335	3135.03	5
-1.21016	-0.00910364	3139.83	5
-1.18618	-0.0080393	3144.63	5
-1.16218	-0.00646689	3149.43	5
-1.138	-0.00388392	3154.27	5
-1.11399	0.000687032	3159.07	5
-1.09006	0.00918414	3163.87	5
-1.0659	0.0250766	3168.69	5
-1.04192	0.049137	3173.49	5
-1.01793	0.0597228	3178.29	5
-0.993916	0.0420891	3183.08	5
-0.969907	0.0324271	3187.88	5
-0.94593	0.0254904	3192.68	5
-0.92192	0.0208446	3197.48	5
-0.897942	0.0176381	3202.28	5
-0.873936	0.016347	3207.08	5
-0.849962	0.0158102	3211.88	5
-0.825974	0.0160256	3216.68	5
-0.801964	0.0163927	3221.48	5
-0.777934	0.0173144	3226.28	5
-0.753926	0.0182048	3231.08	5
-0.729933	0.0191688	3235.87	5
-0.705982	0.0195627	3240.67	5
-0.681999	0.0208679	3245.47	5
-0.657983	0.022337	3250.27	5
-0.634034	0.0233894	3255.07	5
-0.610024	0.0237251	3259.87	5
-0.586031	0.0238027	3264.67	5
-0.562028	0.0243447	3269.47	5
-0.538069	0.0248411	3274.27	5
-0.514037	0.0250967	3279.07	5
-0.49006	0.024475	3283.87	5
-0.466023	0.0232088	3288.66	5
-0.442058	0.0218952	3293.46	5
-0.418037	0.0213107	3298.26	5
-0.394032	0.0211299	3303.06	5
-0.370058	0.020852	3307.86	5
-0.346036	0.02086	3312.66	5
-0.322073	0.0197318	3317.46	5
-0.29809	0.0186732	3322.26	5
-0.274125	0.0175227	3327.06	5
-0.250081	0.0166858	3331.86	5
-0.2261	0.0162206	3336.66	5
-0.20211	0.0157437	3341.45	5
-0.17812	0.0152874	3346.25	5
-0.154082	0.0146321	3351.05	5
-0.130135	0.0134986	3355.85	5